Folder: MaRCN_Tensile_Ontology/results/Unknown_Resin_15Bi/Tensile_Test_03

Note: README.md
# MaRCN_Tensile_Ontology
 Exercise on FAIR Tensile data under RDF files

File: Tensile_test_8.csv
Displacement,Load
-6.79874e-06,-0.119948
-1.4357e-06,0.148496
4.08715e-06,0.384035
9.57552e-06,0.517808
1.50864e-05,0.619959
2.06066e-05,0.695953
2.60958e-05,0.766966
3.15476e-05,0.875989
3.70568e-05,1.12231
4.25776e-05,1.2127
4.8062e-05,1.28976
5.3553e-05,1.41821
5.90563e-05,1.60685
6.45734e-05,1.76307
7.01046e-05,1.94326
7.55619e-05,1.97401
8.10666e-05,1.99732
8.65898e-05,2.25806
9.20695e-05,2.35822
9.75542e-05,2.55819
0.000103062,2.70566
0.000108526,3.04182
0.000114036,3.17798
0.000119546,3.50376
0.000125049,3.75896
0.00013053,3.93
0.000136079,4.29379
0.00014156,4.63425
0.000147024,4.90811
0.000152518,5.227
0.000158039,5.46596
0.000163531,5.84516
0.000169087,6.2373
0.000174556,6.49935
0.000180001,6.82842
0.00018557,7.26648
0.000191076,7.66152
0.000196543,7.95197
0.000202,8.48358
0.000207497,8.9168
0.000213042,9.28406
0.00021855,9.66849
0.00022404,10.0911
0.000229518,10.4997
0.000235046,11.0197
0.000240587,11.4269
0.000246035,11.94
0.000251504,12.3613
0.000257005,12.8626
0.000262499,13.4147
0.000267995,13.9925
0.000273549,14.5619
0.00027902,14.8934
0.000284554,15.428
0.00029005,16.0824
0.000295545,16.6982
0.000300997,17.2508
0.000306509,17.7356
0.000311977,18.426
0.000317501,19.1514
0.000323036,19.7113
0.000328529,20.4069
0.000334034,21.0197
0.000339537,21.6848
0.000344967,22.2642
0.000350471,22.9269
0.000356039,23.7307
0.000361496,24.3228
0.000366967,24.8498
0.00037252,25.6051
0.000377989,26.1667
0.000383469,26.8593
0.000388984,27.5011
0.000394508,28.2965
0.000400005,29.0388
0.000405503,29.8679
0.000410976,30.5178
0.00041647,31.1428
0.000421934,31.8848
0.000427505,32.5078
0.00043295,33.2298
0.000438446,33.9368
0.000443989,34.6817
0.000449528,35.1589
0.000455,35.7228
0.000460496,36.4877
0.000465926,37.2086
0.000471446,37.8388
0.000477006,38.2866
0.000482486,38.757
0.000487973,39.3126
0.000493475,40.0164
0.000498988,40.5827
0.000504482,41.2754
0.000509958,41.6866
0.00051543,42.2292
0.000520959,42.6881
0.000526477,43.0521
0.000531965,43.3962
0.000537457,43.957
0.000542977,44.32
0.000548453,44.8538
0.000553945,45.3071
0.000559439,45.7328
0.000564927,46.212
0.000570431,46.542
0.000575944,47.0371
0.000581408,47.6955
0.000586973,48.1111
0.000592472,48.5577
0.000597966,49.0906
0.000603437,49.6763
0.000608933,50.1009
0.000614418,50.5093
0.000619933,51.0656
0.00062542,51.4473
0.000630921,51.8879
0.000636433,52.4726
0.00064191,52.874
0.000647432,53.3289
0.000652961,53.8119
0.000658416,54.3804
0.000663919,54.8949
0.000669403,55.3447
0.000674899,55.7154
0.000680389,56.3182
0.000685905,56.7829
0.000691434,57.3921
0.000696952,57.9319
0.000702404,58.6066
0.000707902,59.1861
0.000713415,59.8614
0.000718892,60.4319
0.000724373,60.9846
0.000729883,61.6125
0.000735393,62.0616
0.000740935,62.7112
0.000746417,63.2464
0.000751885,63.7911
0.00075741,64.3821
0.000762902,64.9144
0.000768417,65.4507
0.000773889,65.8508
0.000779363,66.4157
0.000784875,67.0247
0.000790363,67.5874
0.000795878,68.1038
0.0008014,68.6569
0.000806881,69.3308
0.000812417,69.7036
0.000817872,70.2422
0.000823359,70.7316
0.000828882,71.1602
0.000834377,71.6623
0.000839878,72.0975
0.000845388,72.5676
0.000850861,73.0804
0.000856386,73.5401
0.000861838,73.962
0.000867347,74.4189
0.000872835,74.88
0.000878375,75.3284
0.000883879,75.7095
0.00088934,76.1854
0.000894858,76.5687
0.000900363,77.0481
0.000905878,77.4455
0.000911353,77.842
0.000916816,78.2497
0.000922343,78.5853
0.00092785,78.9884
0.000933345,79.3272
0.000938859,79.6628
0.000944359,80.0373
0.00094985,80.2605
0.000955328,80.7923
0.000960842,81.0493
0.000966335,81.4566
0.00097188,81.7747
0.000977346,82.0998
0.00098287,82.4189
0.000988373,82.7176
0.000993902,83.0493
0.000999428,83.2892
0.00100491,83.5413
0.00101041,83.8292
0.00101597,84.0139
0.00102146,84.2986
0.00102694,84.5168
0.00103243,84.7529
0.00103794,85.0363
0.00104344,85.2775
0.00104895,85.3752
0.00105443,85.6039
0.00105994,85.7374
0.00106542,85.9501
0.00107096,86.0731
0.00107644,86.2592
0.00108191,86.3734
0.00108744,86.5412
0.00109293,86.7376
0.00109843,86.9409
0.00110393,87.1253
0.00110943,87.1045
0.00111493,87.3283
0.00112042,87.4407
0.00112593,87.493
0.00113141,87.6302
0.00113691,87.7315
0.00114244,87.797
0.00114791,87.9173
0.00115342,88.0175
0.00115889,88.0431
0.00116442,88.1149
0.00116991,88.1853
0.00117541,88.1511
0.00118091,88.2379
0.00118642,88.34
0.00119192,88.2785
0.00119742,88.3642
0.00120289,88.2893
0.0012084,88.3202
0.00121391,88.3766
0.00121941,88.4107
0.00122489,88.4767
0.0012304,88.5116
0.00123589,88.4606
0.0012414,88.5603
0.0012469,88.5087
0.00125237,88.4987
0.00125789,88.447
0.00126342,88.5791
0.00126889,88.6139
0.00127438,88.5299
0.00127989,88.461
0.00128538,88.471
0.00129088,88.4724
0.00129638,88.4226
0.00130189,88.6065
0.00130739,88.8395
0.00131285,89.0034
0.00131837,88.8833
0.00132386,88.9659
0.00132938,88.9586
0.00133487,88.8296
0.00134036,88.883
0.00134586,88.8129
0.00135135,88.7851
0.00135687,88.7193
0.00136241,88.7528
0.00136787,88.7617
0.00137336,88.6327
0.00137886,88.7424
0.00138438,88.5759
0.00138986,88.5267
0.00139533,88.3768
0.00140084,88.3344
0.00140635,88.1751
0.00141185,88.1754
0.00141734,88.2113
0.00142287,88.0699
0.00142835,88.0951
0.00143384,88.0982
0.00143932,87.9124
0.00144483,87.8845
0.00145034,87.714
0.00145586,87.632
0.00146136,87.43
0.00146684,87.5846
0.00147236,87.4407
0.00147784,87.2862
0.00148333,87.3747
0.00148882,87.1538
0.00149433,87.0978
0.00149984,86.8916
0.00150535,-0.337715
0.00151081,-0.344995
0.00151633,-0.419228
0.00152185,-0.240774
0.00152735,-0.424852
0.00152933,-0.289126