Folder: MaRCN_Tensile_Ontology/results/Unknown_Resin/Tensile_Test_02

Note: README.md
# MaRCN_Tensile_Ontology
 Exercise on FAIR Tensile data under RDF files

File: Tensile_test_2.csv
Displacement,Load
-8.46349e-10,-0.223924
8.92642e-06,0.299207
1.94292e-05,0.595407
2.9921e-05,0.949541
4.04239e-05,1.40497
5.09025e-05,1.86204
6.14163e-05,2.19131
7.19089e-05,2.8136
8.23903e-05,3.32471
9.28974e-05,3.86662
0.000103409,4.51755
0.000113912,5.23375
0.000124395,5.80521
0.000134889,6.53464
0.000145424,7.30853
0.000155915,8.12579
0.000166389,8.98109
0.000176881,9.79803
0.000187377,10.622
0.000197903,11.5158
0.000208395,12.668
0.000218881,13.9511
0.000229362,15.0131
0.000239877,16.0078
0.000250391,17.2425
0.000260875,18.3813
0.000271387,19.4147
0.000281852,20.6753
0.000292356,21.9236
0.000302856,23.0381
0.000313387,24.2899
0.000323852,25.6209
0.000334363,26.7538
0.000344864,28.1249
0.000355337,29.3546
0.000365869,30.6377
0.000376329,31.9543
0.00038683,33.3564
0.000397354,34.5955
0.000407808,35.7797
0.000418274,36.8125
0.000428794,38.043
0.000439272,38.8989
0.000449781,39.8343
0.000460284,40.9027
0.000470773,41.6813
0.000481291,42.902
0.000491762,44.0436
0.000502256,45.1076
0.000512778,45.9635
0.000523274,47.1245
0.000533776,48.247
0.000544245,49.5205
0.000554765,50.4
0.000565288,51.4038
0.000575759,52.7043
0.00058625,53.9601
0.000596743,55.3931
0.000607229,56.6783
0.000617742,57.7968
0.000628236,59.2363
0.000638736,60.5919
0.000649239,62.0101
0.000659711,63.6503
0.00067022,65.1262
0.000680797,66.5375
0.000691228,67.9211
0.000701761,69.3003
0.000712239,70.6726
0.000722805,71.7893
0.000733257,73.0363
0.00074375,74.2814
0.000754265,75.4935
0.000764763,76.7188
0.000775256,77.7585
0.000785763,78.7437
0.000796286,79.547
0.000806761,80.224
0.000817248,81.1488
0.000827752,82.149
0.000838234,83.0727
0.000848727,83.8477
0.000859231,84.67
0.000869754,85.4719
0.000880228,86.1457
0.000890754,86.7347
0.000901246,87.2157
0.000911751,87.7308
0.000922255,88.2067
0.000932709,88.6455
0.00094323,88.9663
0.000953709,89.2199
0.000964241,89.5219
0.000974714,89.7566
0.000985221,90.0639
0.000995725,90.3151
0.00100624,90.2117
0.00101672,90.4585
0.0010272,90.5714
0.00103771,90.6595
0.0010482,90.9145
0.00105874,90.8674
0.0010692,90.8879
0.00107973,90.9406
0.00109018,90.9712
0.00110068,90.9811
0.0011112,90.887
0.0011217,90.7772
0.00113218,90.5943
0.00114267,90.4379
0.00115317,90.3048
0.00116369,89.9202
0.00117419,89.794
0.00118466,89.5815
0.00119519,89.5289
0.00120569,89.2148
0.00121615,89.0572
0.00122667,88.8947
0.00123715,88.7932
0.00124768,88.707
0.00125815,88.5442
0.00126868,88.5923
0.00127915,88.4033
0.00128968,88.4122
0.00130016,88.2329
0.00131065,88.112
0.00132117,88.0508
0.00133162,87.8247
0.00134209,87.97
0.00135258,87.9378
0.00136309,87.7613
0.00137357,87.7832
0.00138406,87.6687
0.0013946,87.7692
0.00140506,87.5546
0.00141555,87.4783
0.00142606,87.4771
0.00143658,87.353
0.00144706,87.4521
0.00145757,87.2827
0.00146805,87.2475
0.00147857,87.1111
0.00148907,87.1049
0.00149955,87.1455
0.00151006,87.0781
0.00152053,87.0083
0.00153104,87.0658
0.00154154,87.0515
0.00155203,87.1491
0.00156253,87.1135
0.00157311,87.1883
0.00158354,87.1246
0.00159405,87.2257
0.00160459,87.2466
0.00161508,87.41
0.00162557,87.3248
0.00163607,87.3272
0.0016466,87.5074
0.00165709,87.6568
0.00166758,87.5919
0.00167808,87.6373
0.00168857,87.7552
0.00169907,87.7263
0.00170957,87.8188
0.00172007,87.9557
0.00173057,88.0824
0.00174104,88.3175
0.00175156,88.1588
0.00176204,88.1613
0.00177256,88.4607
0.00178306,88.5261
0.00179357,88.5611
0.00180402,88.644
0.00181454,88.7792
0.00182504,88.7231
0.00183554,88.8491
0.00184605,88.946
0.00185653,89.002
0.00186704,89.074
0.00187751,89.0486
0.00188806,89.1024
0.00189851,89.1587
0.00190903,89.1169
0.00191951,89.0038
0.00193003,89.1187
0.00194051,89.1044
0.00195101,89.0971
0.00196153,89.0928
0.00197201,89.247
0.00198254,89.241
0.00199301,89.3167
0.00200349,89.4386
0.00201401,89.5162
0.0020245,89.7401
0.00203502,89.894
0.00204548,90.1588
0.00205603,90.2355
0.00206648,90.2811
0.00207697,90.4693
0.00208749,90.5479
0.002098,90.7411
0.00210847,90.7455
0.00211897,90.7779
0.00212948,90.7074
0.00213997,90.9488
0.00215047,90.865
0.00216097,90.836
0.00217148,90.7859
0.00218195,90.7623
0.00219249,90.7837
0.00220297,90.7998
0.00221347,90.8949
0.00222395,90.8991
0.00223446,90.9996
0.00224494,91.0474
0.00225545,91.1305
0.00226596,91.3224
0.0022764,91.3338
0.00228691,91.3978
0.0022974,91.5366
0.00230787,91.7574
0.00231838,91.609
0.00232885,91.716
0.00233942,91.8904
0.00234985,91.9802
0.00236039,92.0349
0.00237085,92.1676
0.00238137,92.2074
0.0023919,92.3096
0.00240243,92.4675
0.0024129,92.4951
0.00242339,92.7727
0.00243388,92.8197
0.00244434,92.8627
0.00245487,92.9945
0.00246543,93.201
0.00247591,93.0818
0.00248643,93.4248
0.00249688,93.456
0.00250742,93.5698
0.00251789,93.7059
0.00252839,93.9418
0.00253891,94.0856
0.00254939,94.2768
0.0025599,94.4687
0.0025704,94.6365
0.00258089,94.8893
0.00259137,95.0043
0.00260188,95.2625
0.00261239,95.3605
0.00262286,95.5435
0.00263338,95.6814
0.00264385,96.0735
0.00265437,95.9602
0.00266483,96.1935
0.00267539,96.3911
0.00268586,96.3829
0.00269635,96.6284
0.00270683,96.7334
0.00271737,96.9919
0.00272785,96.9366
0.00273836,97.3084
0.00274885,97.3522
0.00275935,97.6271
0.00276984,97.6772
0.00278034,97.8606
0.00279083,98.0597
0.00280134,98.2334
0.00281182,98.3284
0.00282233,98.4964
0.00283281,98.7284
0.00284335,98.7649
0.00285381,98.9501
0.00286435,99.0652
0.00287483,99.2104
0.00288535,99.3369
0.00289579,99.4352
0.00290631,99.4983
0.00291683,99.6483
0.0029273,99.8699
0.00293779,99.755
0.00294829,99.9441
0.00295884,99.9769
0.00296937,100.017
0.00297987,100.147
0.00299036,100.27
0.00300088,100.362
0.00301138,100.419
0.00302183,100.553
0.00303233,100.612
0.00304286,100.764
0.00305336,100.816
0.00306383,101.059
0.00306583,101.19