Folder: MaRCN_Tensile_Ontology/results/Unknown_Resin/Tensile_Test_01

Note: README.md
# MaRCN_Tensile_Ontology
 Exercise on FAIR Tensile data under RDF files

File: Tensile_test_1.csv
Displacement,Load
4.03323e-17,-0.320076
4.70298e-06,0.496551
9.69495e-06,0.945924
1.46982e-05,1.1826
1.96954e-05,1.44809
2.47292e-05,1.63578
2.96926e-05,2.01797
3.4689e-05,2.3322
3.96879e-05,2.64435
4.46872e-05,2.83781
4.97054e-05,3.10018
5.4696e-05,3.39384
5.96643e-05,3.72945
6.4667e-05,4.04334
6.96896e-05,4.43079
7.47022e-05,4.71928
7.97101e-05,5.04689
8.46876e-05,5.48578
8.96826e-05,5.72763
9.46998e-05,6.01161
9.96809e-05,6.33766
0.000104681,6.76237
0.000109668,7.10247
0.00011468,7.48359
0.000119701,7.84177
0.000124669,8.15554
0.000129685,8.43156
0.000134664,8.70986
0.000139701,9.16321
0.000144686,9.49695
0.000149665,9.89843
0.000154731,10.2005
0.000159684,10.5118
0.000164667,10.8032
0.000169665,11.2764
0.000174732,11.5031
0.000179724,11.9271
0.000184728,12.2123
0.000189661,12.7755
0.000194707,13.2699
0.000199689,13.565
0.000204714,14.1788
0.000209721,14.4284
0.000214743,14.9836
0.000219708,15.6019
0.00022473,15.904
0.000229712,16.4835
0.000234717,16.9231
0.000239714,17.3122
0.00024469,17.9954
0.000249717,18.4381
0.000254726,18.9768
0.00025971,19.4289
0.000264725,20.05
0.0002697,20.7409
0.000274693,21.212
0.000279712,21.7743
0.000284712,22.3808
0.000289697,23.0869
0.00029468,23.575
0.000299678,24.2755
0.000304691,24.5729
0.000309711,24.9954
0.000314689,25.4881
0.000319683,26.146
0.000324692,26.7875
0.0003297,27.3108
0.000334699,27.9162
0.000339698,28.6001
0.000344667,29.166
0.000349682,29.8036
0.000354705,30.4661
0.000359679,30.9203
0.000364703,31.517
0.000369667,31.9331
0.000374687,32.4454
0.000379682,32.9794
0.000384704,33.5139
0.000389671,34.0404
0.000394669,34.7243
0.000399663,35.1903
0.000404695,35.8422
0.000409707,36.3667
0.000414683,36.9737
0.000419663,37.5001
0.000424677,38.0317
0.000429669,38.6287
0.000434684,39.1272
0.000439657,39.6777
0.000444659,40.2093
0.000449663,40.736
0.00045467,41.21
0.000459642,41.7765
0.000464646,42.3724
0.000469677,42.7798
0.000474687,43.1758
0.00047967,43.5788
0.000484634,43.9584
0.000489659,44.3184
0.000494644,44.7393
0.000499681,45.2066
0.000504687,45.548
0.000509596,46.2289
0.000514597,46.7378
0.000519672,47.3351
0.000524667,47.834
0.000529656,48.4433
0.000534618,48.83
0.000539618,49.4043
0.000544632,49.6978
0.000549664,50.1633
0.000554639,50.7172
0.000559652,51.3611
0.000564615,51.9248
0.000569667,52.2796
0.000574657,52.7546
0.00057965,53.1816
0.0005846,53.808
0.000589614,54.1177
0.000594646,54.6403
0.000599646,55.0773
0.000604624,55.6792
0.000609637,56.4207
0.000614616,57.0708
0.000619651,57.5399
0.000624618,58.313
0.000629616,58.7112
0.000634606,59.4648
0.000639602,59.9695
0.000644614,60.6032
0.000649632,61.1384
0.000654597,61.7587
0.000659615,62.3989
0.00066462,62.9631
0.00066963,63.6501
0.000674599,64.4199
0.0006796,65.0863
0.000684596,65.9349
0.000689631,66.6415
0.000694598,67.0738
0.000699595,67.6793
0.00070461,68.2924
0.000709605,69.0081
0.00071462,69.711
0.000719622,70.3011
0.000724561,71.0004
0.000729595,71.7282
0.000734595,72.3144
0.000739604,72.9746
0.000744612,73.6411
0.000749608,74.3099
0.000754598,74.9498
0.000759605,75.4947
0.000764603,76.0997
0.000769604,76.7432
0.000774592,77.3483
0.000779588,77.8344
0.000784578,78.5275
0.000789554,79.1203
0.000794589,79.6071
0.000799578,80.2168
0.000804596,80.6558
0.000809594,81.1822
0.00081458,81.683
0.00081957,82.182
0.000824538,82.7117
0.000829549,83.1776
0.000834544,83.7127
0.000839527,84.2176
0.000844504,84.5546
0.00084953,85.1144
0.000854525,85.5741
0.000859517,85.9133
0.000864502,86.2509
0.000869523,86.7584
0.000874555,87.0349
0.000879538,87.7646
0.000884518,88.0772
0.000889506,88.4307
0.000894513,88.591
0.000899519,89.1695
0.000904565,89.3425
0.000909524,89.5456
0.000914511,89.956
0.000919496,90.0138
0.000924514,90.3294
0.000929502,90.5983
0.000934499,91.1192
0.000939549,91.5095
0.000944534,91.8715
0.000949594,92.0161
0.000954648,92.3243
0.000959616,92.4937
0.000964597,92.7879
0.000969613,92.9564
0.000974631,93.2555
0.000979631,93.4246
0.000984601,93.6119
0.00098961,93.8338
0.000994609,93.8295
0.000999623,94.0849
0.00100462,94.1726
0.0010096,94.3478
0.00101458,94.4943
0.00101959,94.7037
0.00102461,94.6874
0.0010296,94.8678
0.00103462,95.0359
0.00103959,94.9142
0.00104461,94.9676
0.0010496,95.0218
0.0010546,95.0657
0.00105959,95.1731
0.0010646,95.0588
0.0010696,95.1414
0.0010746,95.1139
0.00107964,95.2011
0.00108462,95.2375
0.00108961,95.2587
0.00109461,95.2626
0.00109961,95.3429
0.00110462,95.1256
0.00110963,95.1505
0.00111464,95.1991
0.00111956,95.2076
0.0011246,95.1625
0.00112964,95.3039
0.00113463,95.169
0.00113965,95.1867
0.00114463,95.0829
0.00114958,95.0915
0.00115461,94.9955
0.00115966,95.0066
0.00116464,95.0079
0.00116962,95.033
0.00117463,94.9404
0.0011796,94.8624
0.0011846,94.8606
0.00118963,94.7774
0.00119462,94.6541
0.0011996,94.6416
0.00120462,94.4554
0.00120961,94.3749
0.00121462,94.3254
0.00121963,94.1881
0.00122461,94.0904
0.00122961,93.9467
0.00123462,93.941
0.00123964,93.8154
0.00124461,93.528
0.0012496,93.507
0.00125461,93.3815
0.00125961,93.3307
0.00126463,93.1626
0.00126961,93.0434
0.0012746,92.9722
0.00127961,92.8479
0.0012846,92.8253
0.00128961,92.6349
0.0012946,92.6211
0.00129957,92.4874
0.0013046,92.3932
0.00130961,92.2925
0.00131461,92.1172
0.0013196,92.0501
0.00132457,92.0448
0.00132958,91.9161
0.00133458,91.8394
0.00133959,91.6734
0.00134458,91.4929
0.00134958,91.4955
0.0013546,91.2667
0.00135961,91.2392
0.0013646,91.1856
0.00136959,91.0132
0.00137461,91.0437
0.00137959,90.8641
0.00138457,90.8064
0.0013896,90.6865
0.00139459,90.6088
0.00139959,90.421
0.00140457,90.4023
0.0014096,90.2086
0.00141458,90.0042
0.00141958,89.9469
0.00142458,89.769
0.0014296,89.581
0.00143457,89.4375
0.00143954,89.1015
0.00144456,88.5334
0.00144959,-1.25045
0.00145458,-1.19708
0.00145959,-1.1692
0.00146458,-1.16202
0.00146958,-1.17101
0.00147459,-1.29128
0.00147957,-1.1705
0.00148455,-1.15829
0.00148953,-1.21648
0.00149458,-1.17063
0.00149809,-1.15727