Folder: MaRCN_Tensile_Ontology/results/V4_Resin/Tensile_Test_01

Note: README.md
# MaRCN_Tensile_Ontology
 Exercise on FAIR Tensile data under RDF files

File: Tensile_test_1.csv
Displacement,Load
-2.41821e-10,0.0682859
7.5522e-06,1.78904
1.55678e-05,2.37053
2.36309e-05,3.09044
3.16263e-05,4.06506
3.95776e-05,4.7962
4.76137e-05,5.96028
5.56104e-05,6.98558
6.35875e-05,8.05555
7.1599e-05,9.2439
7.96116e-05,10.3774
8.75332e-05,11.6832
9.55819e-05,13.1804
0.000103601,14.6277
0.000111605,16.2747
0.00011951,17.8764
0.0001276,19.3525
0.000135588,20.9227
0.000143566,22.4848
0.000151585,24.0348
0.000159582,25.5801
0.000167565,27.2041
0.000175597,28.5962
0.000183588,29.9598
0.000191596,31.4172
0.000199556,32.5754
0.00020757,33.9572
0.000215577,35.0666
0.000223581,36.1634
0.000231565,37.2451
0.000239584,38.4273
0.000247584,39.4015
0.000255553,40.875
0.00026356,42.2075
0.000271575,43.7323
0.00027956,44.9413
0.000287583,46.381
0.000295567,47.6152
0.000303498,48.7871
0.000311567,50.3619
0.000319562,51.9152
0.000327513,53.4196
0.000335565,54.9531
0.00034356,56.4175
0.000351545,57.8554
0.0003595,59.1131
0.000367539,60.8823
0.000375525,62.5014
0.00038354,64.2095
0.000391534,65.9655
0.000399533,67.6233
0.000407539,69.4643
0.000415535,71.2014
0.000423536,72.9348
0.000431544,74.6201
0.000439523,76.4315
0.000447525,78.2061
0.000455527,79.9535
0.000463518,81.7485
0.000471506,83.5814
0.000479513,85.4056
0.000487543,87.117
0.000495516,89.0123
0.0005035,90.7246
0.000511496,92.5337
0.000519489,94.2569
0.000527517,96.0936
0.000535512,97.6942
0.000543478,99.675
0.000551504,101.577
0.000559492,103.419
0.000567453,105.062
0.00057548,106.766
0.000583497,108.751
0.000591477,110.373
0.000599467,112.334
0.000607492,114.078
0.000615505,115.914
0.000623489,117.482
0.000631483,119.201
0.000639484,121.002
0.000647447,122.728
0.000655505,124.373
0.000663461,126.042
0.000671472,127.789
0.000679453,129.434
0.000687465,130.855
0.000695454,132.532
0.000703429,134.153
0.000711404,135.579
0.000719411,137.194
0.000727394,138.753
0.000735401,140.052
0.000743402,141.474
0.000751388,142.863
0.000759409,144.305
0.000767411,145.653
0.000775413,147.09
0.000783379,148.374
0.000791406,149.533
0.00079939,150.892
0.000807369,152.05
0.00081537,153.189
0.000823377,154.452
0.000831375,155.603
0.000839386,156.498
0.000847376,157.631
0.000855365,158.644
0.000863382,159.532
0.000871368,160.477
0.000879367,161.297
0.000887343,162.114
0.000895358,162.902
0.000903362,163.635
0.00091136,164.333
0.000919345,165.019
0.000927358,165.63
0.000935412,166.258
0.000943341,166.753
0.000951332,167.251
0.000959353,167.784
0.000967414,168.125
0.000975357,168.488
0.000983405,168.868
0.000991442,169.438
0.000999368,169.567
0.00100743,169.748
0.00101542,169.996
0.00102337,170.149
0.00103143,170.375
0.00103939,170.345
0.00104739,170.409
0.00105539,170.54
0.00106338,170.585
0.0010714,170.574
0.00107941,170.539
0.00108738,170.393
0.00109539,170.394
0.0011034,170.259
0.00111137,170.083
0.00111938,169.911
0.00112738,169.675
0.00113539,169.47
0.00114337,169.17
0.00115138,169.08
0.00115934,168.617
0.00116735,168.394
0.00117538,168.142
0.00118336,167.733
0.00119139,167.444
0.00119938,167.195
0.00120737,166.767
0.00121535,166.517
0.00122334,166.118
0.00123137,165.681
0.00123937,165.244
0.00124737,165.097
0.00125534,164.57
0.00126336,164.284
0.00127134,163.762
0.00127935,163.362
0.00128736,163.043
0.00129535,162.758
0.00130337,162.403
0.00131135,162.133
0.00131935,161.641
0.00132735,161.34
0.00133532,161.011
0.00134335,160.779
0.00135133,160.415
0.00135933,160.14
0.00136735,159.795
0.00137532,159.564
0.00138332,159.176
0.00139133,158.939
0.00139932,158.801
0.00140732,158.374
0.00141533,158.34
0.00142331,158.078
0.00143131,157.715
0.00143935,157.603
0.00144733,157.35
0.00145528,157.214
0.00146331,157.043
0.0014713,156.774
0.0014793,156.624
0.00148726,156.467
0.0014953,156.187
0.00150331,156.12
0.00151132,155.846
0.00151928,155.676
0.00152728,155.437
0.00153532,155.28
0.00154327,155.126
0.00155129,155.038
0.00155931,154.745
0.00156728,154.651
0.0015753,154.507
0.00158329,154.322
0.00159124,154.19
0.00159924,154.074
0.00160728,153.976
0.00161522,153.831
0.00162322,153.606
0.00163121,153.481
0.00163925,153.302
0.0016472,153.271
0.00165523,153.171
0.00166321,153.113
0.0016712,153.008
0.00167926,152.931
0.00168718,152.923
0.00169519,152.731
0.00170321,152.796
0.00171116,152.718
0.00171922,152.652
0.00172719,152.589
0.0017352,152.587
0.00174317,152.622
0.00175118,152.547
0.00175916,152.486
0.0017672,152.51
0.00177518,152.38
0.00178318,152.446
0.00179118,152.431
0.00179918,152.414
0.00180716,152.303
0.00181519,152.458
0.00182319,152.405
0.00183115,152.359
0.00183917,152.465
0.00184714,152.344
0.00185516,152.321
0.00186319,152.469
0.0018712,152.172
0.00187916,152.287
0.00188716,152.273
0.00189522,152.319
0.00190321,152.362
0.00191119,152.213
0.00191919,152.243
0.00192721,152.145
0.00193521,152.071
0.0019432,152.179
0.00195119,152.193
0.00195921,152.05
0.00196716,152.143
0.00197519,152.168
0.00198322,152.276
0.00199118,152.435
0.00199918,152.418
0.00200721,152.313
0.00201518,152.437
0.00202319,152.554
0.00203122,152.595
0.00203919,152.453
0.00204719,152.677
0.00205518,152.751
0.00206323,152.807
0.00207115,152.801
0.00207919,152.912
0.0020872,152.946
0.00209517,153.098
0.00210319,153.149
0.00211117,153.235
0.00211918,153.336
0.00212719,153.445
0.00213515,153.582
0.00214319,153.715
0.00215119,153.89
0.00215917,153.921
0.00216714,153.948
0.00217518,154.111
0.00218316,154.188
0.00219117,154.358
0.00219918,154.304
0.00220715,154.394
0.00221515,154.543
0.00222317,154.528
0.00223118,154.646
0.00223914,154.78
0.00224715,154.821
0.00225515,154.972
0.00226312,155.055
0.00227117,155.046
0.00227914,155.241
0.00228715,155.145
0.00229513,155.386
0.00230311,155.389
0.00231114,155.485
0.00231914,155.581
0.00232711,-1.87449
0.00233511,-2.01107
0.00234316,-1.91304
0.00235112,-1.94785