Folder: MaRCN_Tensile_Ontology/data/PrimaryData/Aluminium_6061

Note: README.md
# MaRCN_Tensile_Ontology
 Exercise on FAIR Tensile data under RDF files

File: Tensile_002.csv
Displacement (mm),Load (N)
5.22853e-05,4.49155
0.000766889,12.6488
5.59256e-05,12.5419
6.27691e-05,20.6068
0.000616967,31.5532
0.000788332,38.6436
0.000728829,51.9941
0.00105369,66.9398
0.00147607,83.056
0.00174764,99.0074
0.0019543,119.303
0.00266141,145.959
0.00305164,173.456
0.00337576,196.726
0.00357319,227.297
0.00450477,261
0.00479542,289.903
0.00537839,318.451
0.0059696,355.621
0.00654035,387.391
0.00705437,417.254
0.00755103,448.139
0.00789849,468.199
0.00771974,466.583
0.00763914,453.19
0.00737164,447.389
0.00770691,456.427
0.00784806,466.398
0.00789742,484.246
0.00851415,500.255
0.00846666,516.747
0.008756,532.376
0.009076,552.421
0.0093675,572.199
0.00972418,586.423
0.00973435,596.077
0.0101349,610.423
0.0104213,627.244
0.0106658,647.891
0.0106029,670.878
0.0114987,698.506
0.0116965,719.409
0.0125186,744.528
0.0125783,770.074
0.0131081,788.701
0.0134864,812.221
0.0135869,837.178
0.0143729,861.332
0.0146901,881.079
0.0149016,906.651
0.0151072,931.3
0.0155866,955.547
0.0158025,982.43
0.016048,1008.33
0.0167127,1035.5
0.0173453,1061.36
0.0177136,1089.1
0.0178592,1118.52
0.0189318,1152.54
0.0187721,1178.32
0.0193586,1202.95
0.0198799,1232.82
0.0203762,1264.81
0.0210964,1296.18
0.0215773,1325.91
0.0218686,1357.91
0.0224267,1392.02
0.0232119,1427.91
0.0236544,1459.03
0.0243606,1493.62
0.0249927,1529.06
0.0256505,1566.51
0.0262098,1600.63
0.0267683,1635.84
0.027426,1677.2
0.0282174,1715.91
0.0288654,1751.29
0.0293692,1792.69
0.0302204,1832.47
0.031056,1872.37
0.0316874,1912
0.0324563,1953.9
0.0334521,1997.44
0.0338476,2038.96
0.0347665,2083.01
0.03555,2129.16
0.036296,2170.4
0.0373439,2218.97
0.0381057,2265.64
0.0387941,2310.82
0.0398121,2360.99
0.0409592,2407.74
0.0415734,2453.23
0.0426062,2504.84
0.0438318,2570.25
0.0445485,2612.31
0.0455611,2662.41
0.0464939,2715.42
0.0473823,2766.03
0.0486683,2817.49
0.049464,2868.83
0.0505754,2927.03
0.0514007,2980.97
0.0527315,3037.34
0.0541335,3095.58
0.0547741,3156.53
0.0555737,3209.67
0.0573251,3271.94
0.0587365,3331.16
0.0597527,3390.35
0.0612046,3450.89
0.0624998,3513.53
0.0637549,3573.88
0.0650738,3635.85
0.066509,3699.32
0.0683031,3767.06
0.0693118,3830.53
0.070755,3895.74
0.0724146,3965.17
0.0739095,4028.11
0.0754706,4096.55
0.0771377,4165.04
0.078902,4227.55
0.0802408,4297.56
0.0819615,4364.31
0.0837837,4431.4
0.0855357,4499.68
0.0874077,4566.52
0.088944,4634.35
0.0909067,4708.23
0.0931789,4779.7
0.0950614,4849.84
0.0971004,4920.41
0.0994254,4991.6
0.101212,5061.83
0.103383,5130.46
0.106347,5196.48
0.108318,5277.06
0.111268,5342.92
0.11361,5422.51
0.116011,5489.89
0.118917,5563.11
0.121858,5632.5
0.1248,5704.16
0.128262,5774.68
0.131408,5842.35
0.134752,5907.17
0.138351,5973.28
0.142139,6038.15
0.146545,6097.05
0.150851,6165.45
0.155238,6226.48
0.159874,6284.94
0.164723,6341.74
0.169928,6401.23
0.175334,6453.71
0.181193,6504.84
0.187326,6552.97
0.193702,6602.89
0.200877,6650.26
0.207947,6694.78
0.21513,6736.46
0.222983,6777.13
0.231087,6818.06
0.238969,6850.18
0.247371,6887.07
0.256387,6920.76
0.265536,6951.64
0.274855,6980.34
0.294629,7123.77
0.335523,7169.75
0.376626,7239.5
0.417547,7295.58
0.459241,7348.96
0.501218,7398.21
0.543679,7436.66
0.586508,7479.79
0.629566,7518.37
0.672745,7555.04
0.716082,7590.78
0.759182,7624.33
0.802057,7656.27
0.845209,7690.67
0.888212,7720.59
0.93081,7751.36
0.973203,7783.45
1.01544,7813.5
1.05754,7842.73
1.09994,7872.35
1.14204,7898.19
1.18391,7929.18
1.22591,7955.65
1.2679,7982.31
1.31019,8010.17
1.35174,8037.96
1.39387,8065.3
1.43501,8089.26
1.47659,8114.71
1.51846,8141.25
1.56018,8164.83
1.60204,8188.18
1.64352,8210.9
1.68487,8235.64
1.7267,8258.41
1.76823,8283
1.81,8304.43
1.8523,8329.68
1.89369,8346.21
1.93604,8370.48
1.97815,8391.96
2.02024,8409.31
2.06225,8429.19
2.10457,8450.44
2.14662,8467.92
2.18914,8486.28
2.23193,8507.19
2.2743,8522.61
2.31654,8542
2.35947,8559.27
2.40228,8574.82
2.44512,8595
2.48793,8607.31
2.53076,8624.81
2.57393,8639.47
2.61677,8655.63
2.66048,8672.82
2.70404,8685.41
2.74756,8699.11
2.79071,8714.31
2.83465,8730.48
2.87938,8743.49
2.92338,8755.61
2.9667,8767.93
3.0109,8778.15
3.05486,8794.66
3.0995,8804.17
3.14415,8814.39
3.18883,8828.08
3.23344,8837.13
3.27794,8847.62
3.3227,8860.46
3.36786,8866.67
3.41304,8877.7
3.45827,8889.08
3.5036,8896.14
3.54902,8904.37
3.59504,8914.01
3.64113,8925.33
3.68743,8930.54
3.73348,8938.31
3.78034,8948.95
3.82693,8955.87
3.87385,8962.28
3.92072,8968.34
3.96793,8974.16
4.01547,8982.1
4.06314,8991.11
4.11099,8995.29
4.15958,9001.81
4.2081,9007.85
4.2566,9010.79
4.30582,9016.66
4.35508,9022.72
4.40496,9025.78
4.45457,9031.53
4.5053,9034.08
4.55599,9039.56
4.60723,9043.62
4.65882,9046.2
4.71111,9049.86
4.76351,9051.51
4.81651,9052.91
4.87034,9058.58
4.9249,9060
4.97978,9058.07
5.03501,9061.43
5.09041,9060.28
5.14785,9061.44
5.20572,9061.95
5.26456,9055.8
5.32428,9053.16
5.38477,9051.36
5.44658,9044.06
5.50958,9036.94
5.5738,9028.64
5.63877,9018.09
5.70407,9004.42
5.77129,8988.98
5.83965,8971.48
5.90873,8945.41
5.97899,8918
6.04899,8887.52
6.12004,8849.05
6.19203,8803.39
6.26459,8753.83
6.33811,8690.81
6.41227,8620.06
6.48661,8537.46
6.56277,8420.85
9.52636,-4906.96

File: Tensile_004.csv
Displacement (mm),Load (N)
0.000627159,0.643013
0.000488768,1.1726
0.00059556,1.74095
0.000639157,4.04841
0.000465898,6.7725
0.000732228,9.44276
0.00054868,9.59762
0.000823058,14.5241
0.00106103,20.8517
0.000987051,29.0628
0.00100323,37.7585
0.00129857,48.2867
0.00120162,60.0684
0.00195376,77.0684
0.00198668,97.4318
0.00229135,120.671
0.00313633,143.279
0.00335399,167.608
0.00394465,196.153
0.00450181,226.513
0.00478543,257.375
0.00530871,290.137
0.00603881,323.444
0.00666714,356.857
0.0074351,394.664
0.00790301,432.429
0.00839497,466.336
0.00906075,504.428
0.00968427,535.206
0.0104037,567.731
0.0107921,591.387
0.0110449,605.032
0.0109885,609.034
0.0112035,620.369
0.0114474,623.995
0.0112156,610.373
0.0109932,602.458
0.011391,611.523
0.0117453,624.993
0.0120406,639.492
0.0124377,658.163
0.0125268,673.304
0.0131363,686.971
0.0129696,704.901
0.0137303,722.607
0.014033,739.575
0.0142204,756.882
0.0147995,778.24
0.0152097,801.151
0.0156405,822.867
0.015824,847.838
0.0165064,871.013
0.0172292,895.723
0.0174137,920.03
0.0177266,945.164
0.0186533,973.469
0.0189125,1001.63
0.0195457,1028.83
0.0202555,1057.82
0.0205844,1087.94
0.0210484,1118.67
0.0219262,1150.57
0.0223271,1180.78
0.0230765,1210.8
0.0237006,1243.94
0.0242909,1277.85
0.0249369,1315.23
0.0256064,1350.21
0.0264131,1384.51
0.0269772,1423.98
0.0277214,1463.13
0.0284487,1498.4
0.0292003,1538.7
0.0300939,1577.56
0.0306532,1618.52
0.0315733,1659.76
0.0322739,1698.91
0.0333217,1746.44
0.0340156,1784.42
0.0350872,1832.64
0.0357727,1876.78
0.0367328,1923.46
0.0377514,1970.31
0.0385546,2016.56
0.0394089,2065.51
0.0403411,2115.31
0.0413209,2161.92
0.0423608,2211.14
0.0434552,2265.95
0.0443962,2317.73
0.0456262,2368.48
0.0467108,2421.62
0.0475094,2477.57
0.0487261,2531.85
0.050021,2596.31
0.0510366,2648.78
0.0521768,2706.43
0.0533633,2764.62
0.0544831,2823.03
0.0559368,2884.44
0.057121,2945.23
0.0584956,3007.22
0.0598964,3070.36
0.0611884,3133.79
0.0623888,3193.7
0.0639278,3257.91
0.0653083,3325.19
0.0669554,3391.71
0.0684807,3457.41
0.0696523,3525.3
0.0712583,3595.35
0.0730309,3659.58
0.0745233,3730.03
0.0763415,3797.69
0.0778748,3868.69
0.0797102,3938.46
0.0815721,4009.97
0.0836021,4082.1
0.0853439,4154.3
0.0875258,4224.23
0.0896318,4297.69
0.0919509,4370.88
0.094029,4442.24
0.0966396,4518.66
0.0992709,4591.62
0.101746,4661.65
0.104575,4734.15
0.107343,4807.41
0.110133,4878.65
0.113511,4952.34
0.11661,5019.53
0.120122,5090.45
0.123844,5154.75
0.127455,5223.33
0.131809,5294.13
0.136429,5359.94
0.140593,5422.73
0.145276,5485.51
0.150418,5545.86
0.155502,5606.32
0.161384,5664.49
0.166906,5718.98
0.173007,5771.28
0.179262,5819.66
0.185772,5872.49
0.19239,5919.33
0.199781,5967.76
0.206947,6009.79
0.214731,6051.13
0.222368,6091.84
0.230283,6130.7
0.238837,6166.67
0.247405,6199.08
0.256352,6235.12
0.265225,6265.96
0.274167,6295.19
0.283709,6324.36
0.29369,6353.31
0.303652,6377.93
0.313501,6402.06
0.32386,6426.18
0.334327,6451.09
0.349028,6570.93
0.394997,6605.29
0.440469,6655.61
0.484977,6706.89
0.530116,6752.05
0.575355,6795.76
0.620614,6835.48
0.666216,6874.94
0.711807,6912.48
0.757194,6948.39
0.803147,6982.81
0.849173,7018.6
0.894788,7053.33
0.940211,7085.86
0.985618,7116.86
1.03105,7150.44
1.07662,7182.19
1.12196,7210.73
1.16747,7242.74
1.21234,7271.6
1.26322,7301.13
1.34067,7331.17
1.41831,7360.86
1.49609,7387.85
1.57354,7416.03
1.65123,7444.33
1.72887,7469.2
1.80637,7495.8
1.88396,7522.17
1.96169,7548.62
2.03919,7572.72
2.11688,7597.7
2.19457,7622.41
2.27202,7645.22
2.34961,7670.3
2.42735,7693.88
2.5048,7715.84
2.58244,7737.91
2.66017,7760.13
2.73772,7780.95
2.81536,7802.39
2.89304,7824.49
2.9705,7844.27
3.04818,7862.87
3.12578,7885.21
3.20332,7902.53
3.28092,7921.32
3.3586,7941.68
3.43615,7959.22
3.51379,7974.82
3.59143,7993.7
3.66893,8011.19
3.74661,8026.56
3.8243,8042.64
3.9018,8059.91
3.97949,8073.36
4.05713,8089.7
4.13458,8104.01
4.21231,8117.2
4.29004,8132.27
4.36745,8147.89
4.44518,8161.25
4.52273,8174.55
4.60028,8187.1
4.67796,8200.02
4.75565,8210.4
4.8331,8221.51
4.91074,8233.79
4.98848,8246.38
5.06593,8257.33
5.14366,8268.63
5.2213,8276.26
5.2988,8287.6
5.37644,8298.01
5.45413,8308.49
5.53158,8317.2
5.60922,8325.69
5.68695,8333.31
5.76441,8341.86
5.84209,8351.63
5.91978,8358.78
5.99723,8368.57
6.07497,8374.61
6.15265,8381.15
6.2301,8389.74
6.30775,8396.33
6.38548,8400.07
6.46288,8408.05
6.54062,8414.78
6.61826,8420.29
6.69571,8427.41
6.7734,8431.68
6.85113,8433.22
6.92858,8439.02
7.00622,8445.64
7.08391,8449.74
7.16136,8451.45
7.23909,8457.01
7.31683,8459.67
7.39428,8462.6
7.47197,8467.53
7.54956,8468.53
7.62711,8469.75
7.7047,8474.09
7.78243,8475.92
7.85984,8474.39
7.93762,8477.66
8.01526,8476.3
8.09271,8476.39
8.1704,8475.98
8.24808,8475.45
8.32558,8472.97
8.40327,8467.6
8.48096,8466.24
8.55841,8458.78
8.6361,8450.06
8.71378,8442.5
8.79128,8427.95
8.86897,8414.19
8.94661,8396.73
9.02406,8374.57
9.10175,8347.78
9.17948,8316.52
9.25689,8277.27
9.33462,8226.61
9.41231,8138.58
9.45474,7720.43

File: Tensile_test_1.csv
Displacement (mm),Load (N)
-6.25795e-05,0.258374
-9.76377e-05,3.7774
0.000197772,10.3044
0.000446094,16.8717
0.000593373,27.8941
0.000377475,36.8647
0.00078668,46.3417
0.00107185,58.8714
0.0017421,77.3566
0.00178117,100.491
0.00208874,123.175
0.00274688,149.888
0.00340148,179.051
0.00379778,209.629
0.00409047,240.114
0.00473953,273.208
0.00541244,310.284
0.00609711,344.885
0.00653409,382.492
0.00762813,420.547
0.00821965,458.449
0.00885839,501.88
0.0096554,541.254
0.0101576,580.233
0.0101556,573.539
0.00922922,514.264
0.00925335,515.848
0.00984761,537.241
0.0101952,559.761
0.0103232,587.214
0.0108707,610.879
0.0113277,636.664
0.0117595,665.195
0.0121878,688.565
0.0127539,715.6
0.0130691,744.636
0.013558,768.43
0.0140374,795.628
0.0144483,821.928
0.0147297,843.509
0.015058,860.626
0.0156095,881.052
0.0151396,859.615
0.0154395,886.799
0.0161803,921.466
0.016648,951.761
0.0171069,979.929
0.0176278,1004.8
0.0178562,1029.84
0.0183973,1054.79
0.0188918,1082.16
0.0192843,1109.76
0.0198652,1136.94
0.0201615,1164.81
0.0207491,1193.98
0.0211117,1223.3
0.0217138,1251.6
0.0221642,1284.6
0.0228937,1316.56
0.0235151,1350.44
0.0241634,1383.21
0.0247271,1415.94
0.0251654,1451.43
0.025733,1488.7
0.0266473,1522.08
0.0272187,1559.49
0.0278326,1596.04
0.0286659,1633
0.0290274,1672.19
0.0298477,1707.94
0.0305356,1749.89
0.0310806,1788.37
0.0318555,1831.31
0.0325281,1870.92
0.0334751,1915.08
0.0339606,1954.95
0.0345161,1999.47
0.0354833,2045.1
0.0364032,2087.85
0.0370493,2132.69
0.038288,2180.07
0.0388878,2226.75
0.0396408,2274.61
0.0406655,2322.09
0.0412935,2368.74
0.0423622,2421.18
0.0431137,2474.25
0.0441595,2531.3
0.0452414,2581.42
0.0459673,2633.86
0.0473208,2689.17
0.0481983,2745.41
0.0491218,2800.72
0.0501947,2854.97
0.0514046,2914.79
0.0524188,2972.84
0.0532635,3029.62
0.0546309,3091.02
0.0556078,3148.27
0.0564824,3208.63
0.05794,3271.15
0.0588,3330.75
0.060121,3394.22
0.061306,3458.08
0.0623843,3521.39
0.0635539,3586.7
0.0650225,3651.64
0.0662678,3720.42
0.0674848,3786.16
0.0688266,3854.6
0.0701899,3923.36
0.0714542,3994.64
0.0728915,4063.77
0.0740176,4134.98
0.0755636,4208.15
0.0769523,4280.18
0.0782244,4353
0.0795624,4429.99
0.0812407,4503.65
0.082917,4581.24
0.0845764,4658.27
0.0861489,4736.9
0.0876984,4812.95
0.0891235,4891.67
0.0907988,4968.53
0.0926304,5047.17
0.0946139,5129.44
0.0962824,5214.06
0.0982163,5296
0.0999887,5378.79
0.101991,5460.08
0.103695,5541.42
0.106044,5626.63
0.108651,5711.12
0.110898,5794.73
0.113242,5877.46
0.115686,5964.45
0.118555,6048.77
0.121325,6134.96
0.124331,6220.89
0.127491,6302.71
0.13059,6385.38
0.133742,6466.53
0.137569,6548.81
0.141382,6631.42
0.145448,6707.18
0.149608,6786.04
0.154235,6862.62
0.158672,6938.33
0.163941,7014.97
0.168998,7084.68
0.174444,7154.96
0.180336,7224.89
0.186431,7293.52
0.192988,7357.11
0.199669,7419.14
0.218375,7626.28
0.247633,7777.55
0.276801,7915.66
0.307802,8032.16
0.341385,8131.9
0.377566,8215.07
0.415779,8288.11
0.455285,8353.85
0.497234,8412.31
0.539993,8462.64
0.583358,8509.44
0.627628,8551.56
0.672361,8594.96
0.717515,8634.01
0.763266,8671.77
0.80864,8706.79
0.854444,8742.34
0.900137,8776.7
0.946047,8810.84
0.991941,8843.92
1.03765,8876.39
1.08306,8909.22
1.12844,8939.63
1.17396,8972.54
1.21923,9000.4
1.27481,9030.43
1.35249,9059.76
1.43013,9090.89
1.50754,9120.72
1.58527,9144.92
1.66301,9174.09
1.74046,9201.22
1.81815,9228.8
1.89579,9256.72
1.97324,9282.02
2.05092,9307.98
2.12861,9333.74
2.20602,9358.88
2.28375,9381.47
2.36148,9407.73
2.43894,9430.99
2.51662,9455.1
2.59426,9478.8
2.67172,9502.75
2.74945,9520.93
2.82714,9544.69
2.90459,9566.64
2.98218,9588.35
3.05991,9608.83
3.13732,9629.57
3.2151,9648.375
3.29269,9668.17
3.37019,9691.31
3.44783,9709.65
3.52557,9726.09
3.60302,9747.07
3.68066,9765.38
3.75835,9782.87
3.8358,9799.07
3.91353,9817.24
3.99126,9831.85
4.06872,9849.98
4.14636,9866.94
4.224,9881.34
4.30154,9896.93
4.37914,9911.67
4.45687,9927.27
4.53423,9941.18
4.61196,9955.26
4.6897,9968
4.76715,9980.51
4.84483,9996.6
4.92247,10009.1
4.99993,10020.9
5.07761,10032.5
5.15535,10045.8
5.2328,10056
5.31044,10068.4
5.38817,10077.2
5.46567,10087.9
5.54336,10100.7
5.62095,10112.4
5.69845,10121.6
5.77614,10129
5.85387,10141.5
5.93132,10149.8
6.00896,10159.1
6.08665,10169.3
6.1641,10174.4
6.24184,10182.3
6.31948,10192
6.39698,10198.9
6.47457,10206.3
6.5523,10214.4
6.62976,10220.6
6.70744,10227.6
6.78513,10235.1
6.86253,10240.1
6.94031,10243.2
7.01795,10251.1
7.09545,10258.4
7.17309,10264.5
7.25083,10268
7.32833,10273
7.40597,10277.2
7.4837,10281.6
7.56106,10287.1
7.63874,10290.6
7.71643,10291
7.79398,10298.4
7.87157,10302.6
7.9493,10305
8.02676,10306.1
8.10449,10310.5
8.18213,10310.8
8.25963,10314.3
8.33722,10318.6
8.41496,10316.2
8.49245,10317.9
8.57014,10320.6
8.64778,10322.2
8.72528,10322.5
8.80292,10322.5
8.88065,10319.4
8.95806,10318
9.03575,10318.7
9.11334,10314.6
9.19093,10309.8
9.26862,10305.7
9.34635,10298.8
9.4238,10290.8
9.50149,10280.6
9.57913,10266.9
9.65663,10251.8
9.73432,10233
9.81191,10207.6
9.88941,10178.2
9.96714,10122.2
10.0308,4013.74

File: Tensile_test_3.csv
Displacement (mm),Load (N)
0.000306057,0.544333
0.00015732,2.3466
8.79805e-05,5.04121
0.000228241,9.38822
0.000364387,9.54702
0.000517099,15.0856
0.000626161,19.4746
0.000407585,29.2631
0.00109638,42.5417
0.00132272,57.1527
0.00129358,68.7258
0.00163347,87.5791
0.00200861,109.101
0.00281004,139.162
0.00296147,157.454
0.00293315,164.262
0.00285995,162.701
0.00305855,178.131
0.00342565,188.482
0.00319177,189.53
0.00303878,186.883
0.00344444,201.68
0.00373164,225.786
0.00393258,235.223
0.00425459,251.967
0.00438102,258.636
0.00458388,270.212
0.00482465,288.829
0.00506348,308.5
0.00534864,324.721
0.00571142,343.683
0.00605697,364.248
0.00625019,381.327
0.00644475,397.306
0.00673596,416.331
0.00737511,437.776
0.00754041,457.854
0.00805066,478.405
0.00871286,505.478
0.00837457,509.499
0.00915695,545.445
0.0095262,571.15
0.00995067,596.464
0.0104791,620.763
0.0109572,649.278
0.0113194,674.728
0.0114796,703.916
0.0121895,735.583
0.0126044,762.509
0.0131137,791.175
0.0135163,820.529
0.0143388,854.056
0.0147561,886.619
0.0151899,921.159
0.0157922,950.563
0.0165346,989.301
0.0168848,1024.89
0.0175026,1062.82
0.0183107,1099.51
0.0189856,1138.85
0.0195683,1179.19
0.020086,1213.24
0.0209196,1257.51
0.0214492,1291.65
0.022437,1340.7
0.0231424,1380.82
0.0235315,1418.4
0.0245945,1471.33
0.0248525,1502.09
0.0257078,1553.47
0.026446,1595.28
0.0271802,1637.04
0.0280087,1680.28
0.0286532,1723.71
0.0294684,1767.98
0.0302934,1811.47
0.0308769,1853.04
0.0315198,1897.23
0.03224,1940.25
0.0332792,1990.85
0.0338766,2036.99
0.0349256,2086.06
0.0360149,2142.76
0.0366847,2189.34
0.0374267,2240.18
0.038629,2295.91
0.0395154,2347.44
0.0401818,2402.74
0.041273,2455.3
0.0420982,2514.84
0.0431331,2570.68
0.0439679,2626.42
0.0450689,2688.89
0.0462218,2750.71
0.0472859,2810.99
0.0482149,2873.37
0.0493098,2936.19
0.0507747,3008.1
0.051539,3069.88
0.052633,3134.48
0.0538296,3201.23
0.0551373,3274.14
0.0562272,3341.1
0.0572748,3408.6
0.0588419,3482.3
0.0600686,3554.81
0.0611291,3625.11
0.0625852,3703.65
0.0639838,3779.49
0.0653389,3858.23
0.0664846,3934.23
0.0679172,4016.04
0.0690299,4091.26
0.0709898,4177.01
0.0721337,4259.57
0.0735318,4338.16
0.0750109,4422.26
0.0767446,4509.4
0.078304,4592.02
0.0794887,4680.55
0.081233,4771.26
0.0824128,4855.19
0.0842984,4948.55
0.0858253,5035.5
0.0872903,5129.16
0.0888939,5223.45
0.090815,5316.99
0.0924454,5411.36
0.0938837,5508.39
0.0955269,5603.98
0.0973474,5702.81
0.0994355,5802.11
0.101223,5903.28
0.103109,6002.06
0.105035,6106.52
0.10662,6208.42
0.108613,6309.56
0.11074,6415.21
0.112445,6520.7
0.114638,6628.01
0.116405,6737.95
0.118748,6849.53
0.120911,6956.65
0.12309,7071.42
0.124924,7184.04
0.127519,7296.81
0.12968,7414.73
0.136698,7761.35
0.144031,8091.09
0.152506,8419.15
0.162431,8736.71
0.173833,9043.57
0.187554,9326.87
0.20376,9580.64
0.223686,9812.24
0.246379,10014.5
0.273377,10187.3
0.303007,10331.3
0.336132,10454.8
0.372316,10560.2
0.411821,10648.9
0.452936,10723.7
0.496904,10787.2
0.541757,10843.4
0.588395,10897
0.636275,10946.8
0.68421,10985.9
0.732642,11029.6
0.781168,11068.8
0.830052,11107.8
0.879265,11145.7
0.928294,11180.3
0.976965,11217.3
1.02532,11250.3
1.0742,11286.1
1.12293,11320.1
1.17116,11354.7
1.2195,11386.7
1.2809,11417.3
1.36557,11451.5
1.4502,11481.3
1.53492,11513.8
1.61959,11543.1
1.70421,11572.9
1.78889,11601.3
1.8736,11629.9
1.95818,11662.5
2.0429,11687.1
2.12758,11716.1
2.21215,11742.5
2.29692,11765.5
2.38155,11797.2
2.46617,11821.7
2.55089,11843.5
2.63552,11869
2.7201,11897.4
2.80482,11920.9
2.88953,11943.2
2.97411,11967.4
3.05883,11988.6
3.1435,12013.1
3.22813,12032.3
3.31285,12055.2
3.39748,12075.6
3.4821,12096.8
3.56687,12114.8
3.65149,12133.2
3.73612,12154.6
3.82084,12172.6
3.90551,12193.8
3.99014,12206.7
4.07481,12229.6
4.15943,12243.1
4.24415,12259.6
4.32883,12278.9
4.4134,12292.3
4.49808,12307.1
4.58284,12323.8
4.66747,12338
4.75209,12354.4
4.83681,12366.5
4.92144,12380.5
5.00611,12394.7
5.09078,12410.7
5.17536,12419.6
5.26008,12428.1
5.34475,12444.4
5.42938,12456.9
5.51405,12465.4
5.59877,12478.3
5.6834,12488.5
5.76802,12499.9
5.85274,12509.5
5.93737,12517.1
6.02204,12528.5
6.10676,12536.9
6.19138,12545.4
6.27606,12554.1
6.36073,12561.3
6.4454,12568.5
6.53003,12578.3
6.61475,12585
6.69942,12593.1
6.784,12599.1
6.86872,12604.3
6.95344,12612.3
7.03802,12620.4
7.12269,12623.2
7.20741,12627.5
7.29208,12634.6
7.37675,12640.6
7.46142,12643.7
7.5461,12647
7.63072,12653.6
7.7154,12661.7
7.80007,12662.5
7.88474,12662.3
7.96941,12667.7
8.05404,12671.6
8.13871,12671.5
8.22338,12674
8.3081,12677.6
8.39268,12680.2
8.4774,12679.3
8.56207,12680.3
8.64675,12680
8.73137,12682
8.81604,12678.8
8.90076,12678.8
8.98539,12678.5
9.07006,12674.3
9.15473,12666.7
9.23941,12663.3
9.32403,12651.5
9.4087,12645.3
9.49338,12632.9
9.57805,12618.4
9.66281,12594.9
9.74735,12571.6
9.83207,12540.6
9.91679,12505.9
10.0014,12460.6
10.0861,12409.3
10.1708,12302.1
10.1848,12254.2

File: Tensile_test_5.csv
Displacement (mm),Load (N)
0.000200773,0.216887
0.000329026,3.77009
0.000455207,8.62765
0.000608095,12.8586
0.000571199,19.9983
0.000815707,29.1727
0.000809521,41.1193
0.000970871,57.4241
0.00150003,73.1228
0.00165587,89.9635
0.00209196,108.073
0.00264066,131.483
0.00281302,159.499
0.0032983,186.483
0.00383004,213.485
0.00452436,245.899
0.00475493,279.369
0.00546009,313.607
0.00644897,350.811
0.00676433,389.179
0.00745242,423.098
0.00813344,459.985
0.00848443,495.793
0.0087882,526.691
0.00943902,545.744
0.00927917,538.046
0.00949276,550.698
0.00975618,568.603
0.0100337,591.33
0.0104527,609.9
0.0109246,635.301
0.0115224,658.335
0.0118245,683.716
0.012415,710.812
0.0127227,736.819
0.013291,766.924
0.0141036,799.149
0.0144036,826.631
0.0151426,861.27
0.0157394,897.282
0.016322,927.997
0.0170609,966.092
0.017528,1003.43
0.0183278,1042.49
0.0189021,1081.98
0.0195642,1122.88
0.0203134,1162.25
0.0211891,1205.33
0.0216578,1247.29
0.0227209,1293.68
0.0234005,1339.69
0.0244313,1385.11
0.0252849,1433.28
0.0260171,1478.29
0.0267282,1528.07
0.0276622,1576.44
0.0286746,1628.46
0.0293701,1675.52
0.0303075,1726.61
0.0311968,1778.54
0.032207,1833.37
0.0329541,1887.05
0.0340333,1941.42
0.0349808,1992.57
0.035944,2051.42
0.0369651,2109.94
0.038066,2165.8
0.0389901,2222.1
0.040179,2283.19
0.0411786,2341.95
0.0419972,2395.52
0.0435116,2454.62
0.0440104,2504.98
0.0450062,2561.95
0.0458412,2610.42
0.0470816,2662.08
0.0478564,2709.19
0.0488361,2759.02
0.0496858,2806.39
0.0504845,2856.16
0.0514749,2903.25
0.0523445,2952.71
0.0531284,3002.93
0.0539999,3048.5
0.0549396,3097.11
0.0557486,3147.28
0.0564711,3199.33
0.0577455,3252.05
0.0582047,3301.09
0.0595161,3354.87
0.0606352,3409.89
0.0619792,3487.51
0.0630523,3528.73
0.0637674,3585.13
0.0648608,3641.64
0.0659804,3702.5
0.0671017,3761.92
0.0682856,3822.4
0.0694034,3883.67
0.0706607,3947.25
0.0719919,4011
0.0733167,4074.67
0.0742445,4138.65
0.0756502,4202.67
0.076974,4269.18
0.0782506,4336.51
0.0794863,4405.11
0.0807345,4475.72
0.0823193,4546.22
0.0835662,4615.81
0.0850287,4689.86
0.0863773,4761.53
0.0880768,4833.97
0.0895993,4908.87
0.0911496,4984.63
0.09283,5061.21
0.0946032,5137.25
0.0960424,5213.93
0.0980605,5292.49
0.0994754,5371.25
0.10148,5450.61
0.103449,5531.82
0.105301,5612.68
0.10763,5692.67
0.109464,5773.68
0.111846,5852.86
0.114231,5935.43
0.116423,6018.16
0.118846,6101.65
0.121317,6182.82
0.123993,6263
0.126713,6345.09
0.129489,6424.86
0.132543,6505.93
0.136003,6586.59
0.13925,6665.85
0.142824,6743.9
0.146576,6821.65
0.150687,6897.45
0.154974,6972.42
0.159153,7044.81
0.164397,7116.08
0.168819,7185.28
0.174434,7250.78
0.180096,7315.02
0.185696,7379.31
0.192356,7438.74
0.198782,7496.75
0.205495,7552.19
0.212394,7604.48
0.22003,7655.46
0.227965,7705.73
0.235757,7748.61
0.243966,7792.76
0.252981,7835.41
0.261801,7875.64
0.270989,7912.39
0.280583,7949.5
0.296536,8108.9
0.339583,8161.23
0.382531,8240.17
0.42547,8305.84
0.469366,8367.03
0.513763,8419.3
0.559418,8464.64
0.60514,8507.74
0.651673,8550.15
0.697672,8587.87
0.744147,8627.64
0.790502,8663.9
0.837111,8697.31
0.883355,8732.47
0.929221,8767.49
0.974967,8799.11
1.02099,8829.69
1.06682,8864.08
1.11251,8894.98
1.15802,8924.86
1.20363,8958.3
1.2491,8987.52
1.32576,9015.76
1.40344,9045.58
1.48108,9075.28
1.55854,9100.85
1.63627,9130.31
1.71396,9157.57
1.79141,9185.3
1.86914,9211.23
1.94674,9238.41
2.02428,9263.02
2.10188,9288.64
2.17961,9314.98
2.25697,9338.91
2.33475,9362.88
2.41239,9386.26
2.48989,9409.19
2.56757,9433.67
2.64526,9456.04
2.72267,9476.97
2.80035,9498.38
2.87804,9521.68
2.95549,9541.57
3.03318,9561.38
3.11087,9581.35
3.18832,9602.73
3.26605,9621.87
3.34369,9641.43
3.42119,9659.01
3.49883,9676.4
3.57656,9694.97
3.65397,9712.58
3.73166,9728.77
3.80934,9746.81
3.8868,9763.89
3.96448,9779.82
4.04217,9794.31
4.11967,9811.48
4.19726,9825.31
4.27499,9840.54
4.35249,9856.25
4.43018,9869.35
4.50787,9882.1
4.58527,9897.33
4.66296,9910.5
4.74065,9922.38
4.81815,9933.44
4.89579,9948.36
4.97347,9958.93
5.05097,9968.52
5.12856,9982.12
5.2063,9991.6
5.2837,10002.8
5.36144,10013.3
5.43908,10022.7
5.51667,10031.9
5.59426,10043.8
5.672,10054.5
5.74945,10062.2
5.82713,10072.3
5.90477,10080.3
5.98223,10086.7
6.05992,10095.3
6.13755,10103.7
6.2151,10111.7
6.29279,10118.3
6.37043,10126.9
6.44797,10133.1
6.52561,10138.7
6.60335,10144.3
6.6808,10150.7
6.75849,10156.3
6.83608,10162.5
6.91367,10168
6.99131,10170.8
7.069,10176.6
7.14645,10182.1
7.22409,10184.9
7.30173,10191.2
7.37923,10193.6
7.45696,10197
7.53456,10200.2
7.61201,10202.4
7.68979,10205.5
7.76743,10207.3
7.84493,10211.3
7.92257,10211.6
8.0003,10212.2
8.07766,10213.8
8.15549,10211.5
8.23308,10210.8
8.31058,10212.1
8.38827,10210.2
8.46595,10204.6
8.54345,10200.3
8.62109,10196.4
8.69883,10188.1
8.77623,10178
8.85396,10168.4
8.93165,10152.3
9.0091,10134.8
9.08679,10114.2
9.16448,10084.8
9.24198,10055.3
9.31962,10014.5
9.39735,9950.7
9.45366,9494.18