Folder: MaRCN_Tensile_Ontology/data/PrimaryData/Brass

Note: README.md
# MaRCN_Tensile_Ontology
 Exercise on FAIR Tensile data under RDF files

File: Tensile_001.csv
Displacement (mm),Load (N)
9.40746e-05,0.73899
0.000287397,0.829772
0.000148141,1.83066
0.000238302,4.9684
0.00023099,10.1354
8.32248e-05,10.8293
0.000117183,15.7329
0.000314471,24.7456
0.000673368,39.1893
0.000861228,55.8608
0.000764777,80.4334
0.00121322,108.137
0.00137962,131.792
0.0016513,157.236
0.00156462,173.826
0.00176578,188.433
0.00203616,203.02
0.0015959,199.84
0.00159412,196.001
0.00152294,201.051
0.00180757,215.847
0.00175617,226.046
0.0018172,242.136
0.00204382,262.009
0.00211582,276.519
0.00213188,296.53
0.00262697,316.602
0.00264968,334.154
0.00256455,352.14
0.00279632,374.508
0.00312034,396.219
0.003018,419.825
0.0032971,445.313
0.00326928,472.783
0.00368685,502.279
0.00361023,533.168
0.00393035,562.678
0.00418101,593.661
0.00439813,623.792
0.00471621,659.69
0.00483541,695.939
0.00547239,728.952
0.00551998,770.381
0.00581297,807.21
0.00638557,849.264
0.00643747,889.511
0.00666541,935.163
0.00726893,977.281
0.00742028,1025.37
0.00786634,1074.52
0.00844435,1122.76
0.00849241,1171
0.00909916,1222.31
0.00945028,1276.78
0.00973902,1332.73
0.0104493,1390.11
0.0107985,1447.46
0.011342,1509.43
0.011912,1575.69
0.0121894,1640.76
0.0127668,1703.71
0.0133039,1769.48
0.0139966,1842.88
0.014494,1911.29
0.0153168,1987.94
0.0161124,2062.36
0.0166125,2142.77
0.0172912,2224.62
0.0181704,2308.53
0.0189599,2392.01
0.0194243,2480.05
0.0203411,2566.95
0.0213653,2658.05
0.0220028,2749.97
0.022995,2843.41
0.0236622,2940.12
0.0245397,3038.55
0.0255494,3138.97
0.0264319,3241.09
0.0273471,3344.22
0.0286546,3454.36
0.0296,3562.23
0.0308295,3672.52
0.0316574,3790.99
0.0328817,3910.87
0.0339774,4026.69
0.0353121,4150.72
0.0364897,4275.31
0.0378276,4404.93
0.0390998,4531.44
0.040276,4659.92
0.0416011,4790.88
0.0428063,4926.52
0.0442064,5066.81
0.0457447,5205.87
0.0470729,5346.11
0.0486237,5490.95
0.049981,5639.75
0.051852,5783.99
0.0534148,5935.93
0.0551284,6087.01
0.0569063,6245.15
0.0586263,6398.76
0.0601909,6554.17
0.0621523,6715.86
0.0641961,6879.44
0.0659049,7044.17
0.0679323,7209.94
0.0699028,7377.82
0.0721686,7548.84
0.074016,7721.99
0.07652,7900.21
0.0785999,8081.25
0.0809722,8258.41
0.0831863,8447.02
0.0859207,8629.2
0.0885275,8815.5
0.0908712,8997.94
0.093917,9189.5
0.0965842,9381.2
0.101457,9700.56
0.111672,10285.3
0.121205,10819.1
0.132194,11340.8
0.144402,11858.2
0.15807,12359.8
0.173775,12839.1
0.191321,13297.9
0.211835,13726.9
0.235177,14121.6
0.262362,14476.1
0.29367,14784.4
0.330102,15045.3
0.371099,15258.6
0.417291,15425.9
0.469204,15561.5
0.524621,15664
0.583958,15748.5
0.645962,15817.4
0.71076,15875.8
0.777058,15926
0.843744,15971.9
0.911682,16011.4
0.980451,16050.1
1.04907,16086.1
1.11784,16117.5
1.1877,16151.5
1.25722,16179.2
1.3267,16206.9
1.39637,16235.1
1.46637,16259.4
1.53612,16282.8
1.60521,16308.1
1.67526,16329.9
1.74502,16350.6
1.81512,16373.4
1.88463,16392.7
1.95514,16413.7
2.02462,16429.8
2.09472,16449
2.16432,16468.2
2.23488,16485.1
2.30521,16501.9
2.37528,16518.6
2.44596,16533.6
2.5168,16550.3
2.58731,16566.5
2.65761,16579.2
2.72838,16594.6
2.79899,16606.1
2.8698,16619.7
2.94103,16633.5
3.01197,16646.5
3.08341,16657.3
3.15442,16672.4
3.22614,16684.5
3.2977,16693.8
3.36894,16708.5
3.44057,16718.3
3.51228,16728.2
3.58355,16740.8
3.65489,16749.9
3.72661,16759.9
3.79865,16772.6
3.87043,16780.2
3.94255,16789.3
4.01482,16800.4
4.08698,16806.3
4.15941,16819
4.2316,16826.7
4.3043,16836.875
4.37676,16844.3
4.449,16853.2
4.52199,16862.4
4.59458,16868.3
4.6669,16874.5
4.74018,16884.9
4.81387,16890.6
4.88713,16897
4.96098,16906.2
5.03571,16912.9
5.11049,16917.1
5.18439,16927.1
5.25894,16933
5.33462,16939.6
5.40957,16946.8
5.48438,16953.4
5.55958,16957.6
5.63535,16964.9
5.71054,16969.3
5.7858,16975.6
5.8616,16980.6
5.93731,16985
6.01291,16989.3
6.08846,16995.9
6.16424,16999.4
6.23931,17003.7
6.31426,17008.5
6.38968,17015.1
6.46517,17019.1
6.54129,17021.9
6.61836,17027
6.69745,17030.5
6.77737,17032.8
6.8589,17039.3
6.9419,17040.8
7.02643,17044.2
7.1121,17048.6
7.19774,17054.1
7.28234,17054.9
7.36419,17059.7
7.44432,17060.4
7.52353,17063.1
7.60356,17066.1
7.68416,17067
7.76484,17070.6
7.84558,17074.6
7.92543,17076.8
8.00264,17079.5
8.0784,17083.5
8.15316,17082.7
8.22887,17086.5
8.30548,17087.2
8.38462,17089
8.467,17089.3
8.55198,17090.7
8.64012,17090.3
8.73053,17093
8.82339,17092.3
8.91774,17092.5
9.01393,17093.8
9.11179,17090.9
9.21121,17091.6
9.31162,17089.1
9.41296,17088.6
9.51544,17086.7
9.61772,17083.5
9.72066,17080.4
9.82454,17079.6
9.92833,17073.7
10.0327,17067.9
10.1374,17061.9
10.2422,17053.3
10.3472,17047.9
10.452,17040.3
10.5574,17028
10.6626,17018.1
10.768,17006.8
10.8734,16992.3
10.979,16974.3
11.0848,16957.5
11.1902,16936.4
11.2962,16916.7
11.4023,16886.375
11.5083,16860.1
11.6146,16828
11.7212,16790.4
11.8277,16750.1
11.9343,16703.8
12.0414,16651.1
12.1493,16589.8
12.257,16518.3
12.3652,16435.7
12.4741,16332.125
12.5843,16189.1
12.6949,16012.1
16.5158,-2835.71

File: Tensile_002.csv
Displacement (mm),Load (N)
2.70396e-05,0.667243
3.35528e-06,0.286298
0.000161203,1.55344
0.00012742,2.79573
0.000332389,6.57357
0.000473617,12.18
0.00026903,11.2189
0.000513903,18.3801
0.00039275,32.7886
0.000824299,47.5633
0.000895438,74.3462
0.00134675,108.472
0.0017562,143.398
0.00202146,181.626
0.00252665,216.998
0.00295257,252.852
0.00355941,297.883
0.0037507,328.661
0.00364508,353.684
0.00417866,362.024
0.00423316,391.265
0.00454506,411.074
0.00460277,428.148
0.00485803,466.989
0.00547625,499.067
0.00578642,536.999
0.00608885,577.757
0.00636138,618.361
0.00696952,659.029
0.00720329,704.705
0.00781443,752.558
0.00824616,802.579
0.00868606,854.314
0.00937789,907.52
0.00982837,964.368
0.0104571,1023.83
0.011392,1084.86
0.0121397,1150.15
0.0126475,1214.57
0.013403,1278.73
0.0139819,1350.33
0.0147856,1422.95
0.0153176,1492.79
0.0163388,1569.79
0.0172731,1643.85
0.0179075,1719.66
0.0185433,1794.96
0.0195618,1873.4
0.0201306,1946.54
0.0210867,2021.87
0.0216178,2093.12
0.0224322,2158.99
0.0230323,2226.74
0.0237991,2296.93
0.0246841,2364.54
0.0253331,2432.02
0.0257587,2499.59
0.0266629,2567.13
0.0275092,2636.94
0.0281574,2706.94
0.0288907,2778.86
0.0295663,2855.18
0.0306534,2933.8
0.031282,3009.92
0.0323711,3092.26
0.0332219,3173.24
0.0339596,3256.58
0.0349668,3341.53
0.0361502,3431.72
0.0369712,3522.83
0.0379753,3616.22
0.0390629,3710.73
0.0400645,3805.65
0.0410181,3900.9
0.0419701,3999.43
0.0433543,4102.35
0.0443913,4203.48
0.0454746,4310.74
0.0464772,4417.49
0.0476448,4529.89
0.0488939,4638.96
0.0503875,4753.3
0.0514334,4872.87
0.0528081,4991.16
0.0541044,5110.18
0.0557299,5233.03
0.0569778,5355.88
0.0584352,5483.35
0.0601328,5610.9
0.0614603,5739.5
0.0629721,5870.38
0.0644587,6006.04
0.0662347,6141.92
0.0675827,6278.95
0.0693262,6418.49
0.0711464,6560.54
0.0729553,6710.14
0.0747169,6857.5
0.0766293,7005.78
0.0784958,7155.56
0.0805245,7308.62
0.0825796,7466.49
0.0845862,7618.43
0.086816,7777.92
0.0888721,7940.88
0.0910124,8100.64
0.0930927,8267.22
0.0956068,8436.43
0.0983889,8603.67
0.100556,8773.84
0.103388,8944.84
0.106308,9117.27
0.108833,9296.19
0.111692,9474.53
0.114812,9650.86
0.117937,9829.59
0.121252,10011.7
0.124362,10190.2
0.127866,10374.7
0.131461,10558.4
0.137737,10920.4
0.149933,11467.4
0.162873,11986.5
0.177092,12499.4
0.193012,13002.6
0.210728,13479.5
0.230702,13932.5
0.253397,14353.2
0.280073,14736.5
0.311157,15074.8
0.347696,15351.6
0.389635,15576.9
0.437004,15748.4
0.489532,15879.6
0.545888,15981.3
0.60606,16060.7
0.668787,16123.1
0.733714,16178.7
0.800133,16226
0.86763,16266.2
0.936109,16306.2
1.00501,16337.7
1.07412,16370.4
1.14392,16400.7
1.21369,16426.8
1.30057,16454.6
1.40643,16482.7
1.51225,16505.3
1.61807,16529.3
1.72393,16550.9
1.82979,16571.9
1.93561,16593.9
2.04148,16613.8
2.1472,16632
2.25306,16652.9
2.35897,16669.5
2.46474,16687.9
2.57052,16705.7
2.67647,16720.9
2.7822,16738
2.88806,16753.9
2.99388,16767.2
3.09974,16782.8
3.20556,16797.8
3.31142,16811.5
3.41719,16824.5
3.52306,16837.8
3.62887,16848.9
3.73469,16863.9
3.8406,16876.5
3.94633,16888.7
4.05219,16902.6
4.15801,16911
4.26387,16923
4.36969,16933.8
4.47555,16944.7
4.58132,16954.4
4.68728,16965
4.7931,16975.5
4.89887,16984.2
5.00473,16994.3
5.11059,17003.8
5.21636,17015
5.32223,17022.3
5.42805,17031.9
5.53386,17040.7
5.63973,17048
5.74554,17058
5.85136,17063.7
5.95723,17071.2
6.06304,17079.5
6.16895,17088.3
6.27468,17093.4
6.38059,17103.4
6.4864,17108.5
6.59222,17115.8
6.69799,17124.9
6.80386,17129.1
6.90963,17134.2
7.01554,17141.8
7.12135,17150.9
7.22713,17153.1
7.33304,17161.4
7.43885,17166.7
7.54467,17171.8
7.65053,17176.1
7.7564,17182.7
7.86217,17187.7
7.96803,17191.6
8.0739,17196.7
8.17971,17202.8
8.28553,17207.5
8.39139,17212.6
8.49721,17217.6
8.60298,17220
8.70885,17226.7
8.81462,17230
8.92048,17231.1
9.02634,17237.5
9.13216,17239
9.23798,17241.1
9.34384,17247.6
9.44971,17249.9
9.55548,17251.1
9.66139,17257.4
9.7672,17259.5
9.87297,17260.3
9.97879,17267
10.0847,17267.1
10.1904,17271.4
10.2964,17274.4
10.4022,17274.7
10.508,17277.1
10.6139,17279.8
10.7197,17279.9
10.8255,17283.6
10.9314,17283
11.0372,17284.5
11.143,17285.4
11.2489,17287.3
11.3547,17288.1
11.4605,17287.7
11.5664,17289.3
11.6722,17291
11.778,17292.8
11.8838,17291.9
11.9897,17293.9
12.0954,17293.7
12.2013,17290.7
12.3072,17291.4
12.413,17288.6
12.5188,17287.4
12.6247,17286
12.7306,17284.9
12.8363,17278.5
12.9422,17278.2
13.0481,17272.3
13.1539,17268.2
13.2596,17263.8
13.3655,17257.7
13.4712,17248.1
13.5772,17241.3
13.683,17231.8
13.7888,17220.6
13.8947,17208.5
14.0006,17194.9
14.1064,17178.8
14.2123,17160.4
14.3181,17141
14.4239,17118
14.5298,17092.7
14.6356,17066.2
14.7414,17035.3
14.8473,17000.3
14.9531,16962.6
15.0589,16917.4
15.1647,16860.9
15.2706,16800
15.3764,16721.7
15.4822,16632.1
15.5881,16517.8
15.6939,16337.3
15.7998,15887.8
15.9067,9447.1

File: Tensile_003.csv
Displacement (mm),Load (N)
0.000673167,0.798101
0.00057337,1.02279
0.000505663,2.19568
0.000604557,5.77777
0.000583392,10.511
0.000804856,16.4075
0.000916907,21.9765
0.000949208,27.2482
0.00097285,41.51
0.00122739,64.6605
0.00141588,96.0765
0.00178432,126.659
0.00241377,170.237
0.00265498,222.422
0.00333115,272.972
0.00397213,331.621
0.00456674,393.575
0.00496578,453.638
0.00585907,523.424
0.00658657,586.466
0.00715628,659.307
0.00804754,727.326
0.00856863,786.145
0.00919634,839.167
0.00977064,898.163
0.010588,959.203
0.0113535,1027.71
0.0121008,1097.66
0.0127696,1163.63
0.0134481,1232.23
0.014294,1304.11
0.0151042,1379.95
0.0156678,1456.33
0.0167586,1533.2
0.0175921,1604.5
0.0184601,1677.85
0.0194381,1752.5
0.0203015,1827.48
0.0210134,1906.4
0.0217391,1983.13
0.022643,2052.43
0.023414,2121.38
0.0242935,2189.76
0.02478,2253.05
0.026054,2321.76
0.0266779,2391.55
0.0270057,2458.79
0.0281342,2532.5
0.0289148,2606.46
0.0295817,2679.31
0.0308017,2760.99
0.0315266,2836.29
0.0326725,2912.53
0.0333777,2993.49
0.0343608,3077.5
0.0351599,3159.77
0.0364432,3244.19
0.0371174,3328.24
0.0382001,3414.23
0.0391703,3502.5
0.0401875,3590.7
0.041177,3676.87
0.0422362,3765.79
0.0432525,3859.49
0.0441732,3953.86
0.0453523,4044.32
0.0464931,4142.34
0.0476822,4238.53
0.048576,4337.76
0.049813,4433.13
0.051017,4540.39
0.0520915,4630.11
0.0531793,4724.57
0.054514,4824.5
0.055782,4925.84
0.0572685,5035.66
0.0582225,5140.24
0.0596245,5247.42
0.0609287,5358.48
0.0621761,5472.35
0.0637203,5589.83
0.065271,5709.95
0.0663834,5829.43
0.068306,5957.84
0.0695955,6085.01
0.0713307,6214.13
0.0731815,6349.75
0.0746211,6484.81
0.0764507,6620.48
0.0783718,6756.41
0.0802618,6899.63
0.0820837,7044.39
0.0841381,7188.87
0.085821,7333.04
0.0876876,7477.73
0.0899752,7627.59
0.0919006,7781.41
0.0942792,7936.46
0.0961925,8093.64
0.0983969,8254.89
0.100841,8415.5
0.103303,8574.88
0.106045,8738.62
0.108237,8908.68
0.110979,9077.27
0.113835,9251.81
0.116469,9419.45
0.119331,9594.18
0.122307,9771.59
0.125643,9950.11
0.128647,10128.2
0.131905,10309.2
0.135206,10492
0.139021,10678.1
0.142288,10860.8
0.146046,11047.3
0.150223,11235.3
0.154086,11422.5
0.158221,11613.8
0.162563,11806.8
0.170161,12183.7
0.186442,12778.6
0.2033,13338.5
0.222077,13881.1
0.243006,14390.9
0.266869,14873.6
0.29371,15309.7
0.324908,15697.5
0.360864,16030.7
0.40196,16305.4
0.447273,16521.3
0.49695,16689.3
0.551244,16815.5
0.608755,16916.4
0.668739,16996.9
0.730925,17059.8
0.795357,17118.7
0.860913,17164
0.927192,17203.9
0.994705,17244.4
1.06214,17276.9
1.12976,17306.8
1.19866,17340.2
1.2773,17367
1.38303,17391.8
1.48898,17419.6
1.59471,17441.3
1.70052,17463
1.80639,17485.1
1.91225,17505.2
2.01798,17524.4
2.12393,17546.4
2.22975,17563.2
2.33548,17582.1
2.44143,17601.6
2.54725,17617.3
2.65297,17634.2
2.75888,17650.4
2.8647,17664.3
2.97052,17679.6
3.07638,17693
3.18225,17708.2
3.28802,17720.8
3.39393,17734.2
3.4997,17748.2
3.60561,17760.2
3.71138,17772.9
3.8172,17786.4
3.92301,17797
4.02888,17808.8
4.13469,17820.8
4.24051,17831.4
4.34628,17842.3
4.45219,17853.1
4.55806,17862
4.66383,17872.7
4.76974,17883.1
4.87555,17890.4
4.98137,17900.4
5.08723,17911.5
5.19301,17918.7
5.29878,17928.7
5.40473,17938.9
5.51055,17947
5.61632,17954
5.72223,17962.7
5.82805,17970
5.93382,17976.7
6.03968,17983.8
6.1455,17994.7
6.25132,17998.7
6.35723,18003.9
6.46309,18014.3
6.56886,18018.8
6.67473,18025.3
6.78054,18033.3
6.88636,18039.4
6.99213,18045.8
7.09804,18054.1
7.20381,18057.7
7.30972,18065.8
7.41545,18070.7
7.52131,18074.9
7.62713,18079.2
7.73304,18086.1
7.83886,18089
7.94472,18094.2
8.05054,18100
8.15635,18103.9
8.26217,18111
8.36803,18115.5
8.4738,18118.9
8.57962,18124
8.68549,18127.5
8.7913,18132.3
8.89707,18137
9.00298,18138.6
9.1088,18142.2
9.21467,18146.4
9.32053,18149.9
9.42635,18151.5
9.53216,18157.5
9.63803,18157.1
9.74384,18161.1
9.84971,18162.5
9.95553,18166.1
10.0613,18170.7
10.1672,18173.9
10.273,18175.9
10.3788,18179.8
10.4846,18181.9
10.5905,18183
10.6963,18186.3
10.8022,18188.2
10.9079,18189
11.0138,18189
11.1197,18189.9
11.2255,18190.4
11.3313,18191.7
11.4372,18192.5
11.543,18194.4
11.6488,18194
11.7547,18195.9
11.8605,18197
11.9663,18197.4
12.0722,18195.4
12.178,18196.7
12.2839,18193.8
12.3897,18193.8
12.4956,18194.5
12.6013,18189.8
12.7071,18189.2
12.813,18184.4
12.9188,18180.7
13.0246,18179.8
13.1305,18173.9
13.2363,18166.7
13.3422,18164.1
13.448,18156.6
13.5538,18147.4
13.6597,18139.1
13.7655,18128.3
13.8713,18116.3
13.9771,18102.6
14.083,18086.9
14.1888,18068.2
14.2947,18047.7
14.4005,18028
14.5063,18004.9
14.6122,17977.1
14.718,17948.1
14.8239,17916.7
14.9296,17880.1
15.0355,17839.2
15.1413,17792
15.2472,17740.2
15.3531,17680.6
15.4589,17611.5
15.5648,17525.4
15.6706,17418.4
15.7765,17261.6
15.8823,17033.2
15.9893,9474.8
16.0252,5257.53

File: Tensile_004.csv
Displacement (mm),Load (N)
0.000523125,-0.778477
0.000468825,1.07295
0.000424389,2.15274
0.000512627,5.60245
0.000643643,10.5287
0.000565579,18.3652
0.000716546,30.1495
0.000945275,43.7659
0.0012215,63.9409
0.00129618,87.6578
0.00164433,119.559
0.0022191,161.402
0.00234867,202.692
0.00271081,250.395
0.00352256,311.096
0.00412389,366.474
0.00496942,427.553
0.00569648,493.839
0.00620141,557.457
0.00687757,621.185
0.00759578,674.474
0.00708264,658.664
0.00713589,668.922
0.00767065,699.086
0.00788365,738.465
0.00867073,781.991
0.00888955,822.496
0.00916747,865.363
0.00958198,914.508
0.0101033,963.311
0.0104447,991.059
0.0108641,1018.46
0.0114521,1074.36
0.0117722,1123.13
0.0122607,1171.59
0.012879,1222.02
0.0136221,1270.47
0.0141885,1321.09
0.0145356,1370.66
0.0150591,1426.56
0.0156616,1482.97
0.0161706,1535.47
0.0169929,1595.35
0.0174439,1655.15
0.0180923,1715.52
0.0188901,1782.46
0.0196227,1844.8
0.0205973,1914.84
0.0213229,1982.3
0.0219883,2054.53
0.0227261,2130.78
0.0235979,2203.87
0.0244381,2281.71
0.0254097,2363.63
0.0261382,2446.05
0.027148,2530.38
0.0281321,2614.42
0.0290461,2700.83
0.0301068,2790.44
0.0307357,2879.41
0.0321439,2971.83
0.0331798,3067.45
0.0342083,3166.36
0.0350446,3262.27
0.0365457,3362.47
0.0377313,3470.11
0.0389472,3572.11
0.0403954,3681.17
0.041727,3790.04
0.0429082,3905.46
0.0441293,4030.08
0.0458595,4144.78
0.0469843,4263.68
0.0486875,4382.57
0.050173,4505.23
0.051455,4627.92
0.0532053,4756.53
0.0550321,4885.78
0.0567936,5016.42
0.058378,5147.88
0.0603538,5281.72
0.0625523,5420.63
0.064149,5561.73
0.0661872,5708.35
0.067856,5847.81
0.0701773,5994.76
0.0723005,6140.71
0.0744306,6287.01
0.076834,6442.16
0.0789988,6596.35
0.0816771,6747.76
0.0839439,6902.83
0.0865364,7060.83
0.0895806,7225.69
0.0923271,7387.82
0.0952796,7545.33
0.0980572,7707.23
0.101526,7874.16
0.104908,8040.49
0.108088,8201.52
0.111691,8365.44
0.115472,8530.7
0.119123,8698.3
0.123348,8864.91
0.127582,9029.8
0.131909,9198.7
0.13653,9361.98
0.141524,9530.74
0.146328,9691.33
0.151607,9857.58
0.157541,10026
0.162909,10184.6
0.168988,10342.1
0.175521,10499.8
0.182259,10656.6
0.189268,10809.9
0.196578,10957.1
0.204171,11105
0.21238,11247.7
0.220623,11386.7
0.230704,11617.1
0.269071,12034.2
0.306434,12352.4
0.348847,12609.3
0.396539,12811.9
0.448502,12963.3
0.504379,13080.6
0.562734,13172.2
0.624227,13246.6
0.687702,13309.1
0.751905,13361.1
0.817294,13408
0.883862,13449.4
0.950975,13488.6
1.01821,13525.9
1.08612,13558.4
1.15406,13589.1
1.22261,13619.5
1.31273,13648.3
1.41855,13675.5
1.52441,13702.7
1.63023,13727.9
1.73605,13749.9
1.84191,13775.3
1.94773,13794.1
2.05354,13817.2
2.15936,13839.3
2.26522,13858.5
2.37099,13877.5
2.47691,13897.6
2.58277,13913
2.68849,13932.3
2.7944,13950.2
2.90017,13966.1
3.00599,13983.3
3.1119,13998.6
3.21767,14014.5
3.32344,14030.2
3.42935,14043.4
3.53522,14060.3
3.64094,14072.8
3.74685,14086.6
3.85262,14101.6
3.95849,14114.2
4.0643,14126.9
4.17021,14140.1
4.27594,14151.4
4.38185,14164
4.48762,14177.7
4.59348,14186.3
4.6993,14198
4.80521,14212
4.91098,14220.8
5.0168,14233
5.12266,14243.6
5.22843,14252.8
5.3343,14263.6
5.44021,14274.8
5.54593,14283.1
5.6518,14294
5.75766,14302.9
5.86348,14310.9
5.96925,14322.8
6.07516,14329.5
6.18093,14338.5
6.28679,14349
6.39265,14356.7
6.49843,14363.9
6.60424,14372.4
6.71011,14380
6.81588,14388.7
6.92174,14396.8
7.02756,14403.5
7.13338,14411
7.23929,14418.4
7.3451,14424.7
7.45092,14433.6
7.55674,14440
7.66265,14444.2
7.76842,14451.9
7.87428,14457.8
7.9801,14462.3
8.08596,14468.6
8.19178,14475.4
8.29755,14481.9
8.40346,14489.3
8.50928,14493.3
8.6151,14500.3
8.72096,14504.1
8.82678,14510.1
8.93255,14515
9.03846,14519.7
9.14428,14526.8
9.25005,14533
9.35596,14537.1
9.46173,14544.7
9.56759,14551
9.67336,14550.7
9.77927,14553.9
9.88504,14551.7
9.99095,14553.1
10.0967,14560.6
10.2026,14566.6
10.3084,14571.4
10.4143,14580.8
10.5201,14585.4
10.6259,14588.7
10.7318,14593.3
10.8376,14596.7
10.9434,14600.3
11.0493,14603.8
11.1551,14606.3
11.2609,14609.2
11.3668,14610.875
11.4727,14613.8
11.5784,14615.9
11.6843,14617.6
11.7901,14620.4
11.8959,14621.9
12.0018,14621.9
12.1076,14625.2
12.2134,14625.4
12.3193,14627.3
12.4251,14629.7
12.5309,14627.1
12.6368,14627
12.7426,14629.1
12.8484,14627
12.9542,14624.4
13.0601,14627.5
13.1659,14624.8
13.2718,14620.6
13.3776,14621
13.4835,14619.8
13.5892,14615.6
13.6951,14617.4
13.801,14614
13.9067,14611.9
14.0126,14610.3
14.1184,14605.5
14.2242,14600
14.3301,14595.7
14.4359,14589.1
14.5417,14583.4
14.6477,14575.9
14.7535,14565.9
14.8592,14555.4
14.9652,14544.3
15.071,14530.9
15.1768,14515.9
15.2826,14499.6
15.3885,14482.6
15.4942,14460.4
15.6001,14437.7
15.7059,14412.5
15.8117,14384.4
15.9176,14350.5
16.0235,14317.5
16.1293,14277.6
16.2351,14230.5
16.341,14183
16.4468,14125.6
16.5526,14063.1
16.6586,13989.4
16.7644,13903.7
16.8702,13803.2
16.9761,13687.8
17.0819,13546.5
17.1877,13373
17.2937,13160.8
17.3995,12898.3
17.5054,12572.4
17.6113,12112.1
17.6478,-4894.45

File: Tensile_006.csv
Displacement (mm),Load (N)
mm,lbf
0.00015398,-0.524574
8.62086e-05,-0.803665
0.000759499,-0.212929
0.000196533,0.342506
0.000139002,0.771281
0.000850474,3.29268
0.00090981,4.9693
0.00121977,7.84054
0.00101279,12.2019
0.00151233,16.9614
0.00156712,23.316
0.00199212,30.2336
0.00227923,38.7411
0.0029984,50.3304
0.00381645,61.6397
0.00399634,74.4042
0.00481347,89.641
0.00487248,103.404
0.0062439,120.803
0.00670086,137.467
0.00765371,156.675
0.00878094,175.767
0.00934893,195.953
0.0103475,216.443
0.0114316,239.17
0.0128033,262.248
0.0141826,285.004
0.0149635,308.852
0.0156882,329.328
0.0169895,342.465
0.0162279,330.375
0.0163019,330.301
0.0168707,337.379
0.016354,345.12
0.0176003,353.322
0.0175747,361.711
0.0182488,370.617
0.017958,380.321
0.0183516,384.512
0.0188401,392.684
0.019084,401.745
0.0203843,412.769
0.020809,422.985
0.0212788,433.731
0.0210574,443.5
0.0217285,454.722
0.0220305,467.18
0.0228232,478.274
0.0241372,491.122
0.024178,503.417
0.0247303,515.845
0.0258136,529.539
0.026419,544.137
0.0272281,557.915
0.027336,572.27
0.0284099,588.423
0.029058,603.251
0.0296338,618.455
0.0303527,634.347
0.0308838,650.521
0.0328779,668.297
0.0336901,685.259
0.0338713,701.808
0.0357633,720.493
0.0366484,739.086
0.0373319,758.04
0.0383215,777.835
0.0391078,796.516
0.0406087,815.964
0.0412702,835.528
0.0431053,857.123
0.043561,876.392
0.0444604,899.332
0.0461086,922.324
0.0471795,943.925
0.0482031,966.708
0.0499288,989.495
0.0506357,1011.69
0.0519134,1035.67
0.0531937,1059.67
0.0547687,1083.83
0.0563488,1108.25
0.0585231,1133.57
0.0601571,1158.81
0.0611563,1184.63
0.062466,1210.89
0.0644946,1237.53
0.0660867,1263.25
0.0679571,1290.88
0.0693268,1318.24
0.071802,1346.49
0.0737818,1375.13
0.0749629,1403.82
0.0770641,1432.24
0.0796414,1462.15
0.0813939,1491.41
0.0840353,1522.12
0.0858049,1551.55
0.0883741,1581.77
0.0904889,1612.82
0.0935573,1644
0.0956039,1674.91
0.0988009,1706.71
0.101109,1737.98
0.104434,1770.03
0.107062,1802.3
0.109671,1834.1
0.113701,1867.51
0.117306,1900.72
0.120565,1933.62
0.123997,1966.13
0.127287,1998.61
0.131021,2030.4
0.134945,2064.43
0.138951,2097.02
0.143709,2130.67
0.148529,2163.34
0.153545,2197.15
0.158734,2230.48
0.163636,2262.82
0.169033,2294.93
0.174854,2327.33
0.180564,2358.72
0.186974,2390.07
0.193539,2421.74
0.202301,2474.03
0.232041,2578.97
0.260353,2658.08
0.291879,2726.39
0.328561,2782.99
0.368363,2828.81
0.413219,2865.06
0.461679,2894.24
0.514385,2917.42
0.56939,2935.39
0.62725,2950.3
0.687161,2963.6
0.747983,2974.67
0.810948,2984.83
0.874787,2994.12
0.938224,3002.38
1.00269,3009.62
1.06813,3017.06
1.13358,3024.24
1.19891,3030.51
1.27215,3037.42
1.37373,3042.67
1.47531,3048.47
1.57689,3053.25
1.67846,3059.49
1.78014,3064.34
1.88172,3068.24
1.98329,3073.81
2.08487,3078.47
2.1865,3082.16
2.28812,3086.59
2.38961,3090.7
2.49128,3095.06
2.59291,3099.23
2.69449,3102.59
2.79611,3105.45
2.89774,3109.88
2.99927,3112.78
3.1009,3116.39
3.20252,3119.75
3.3041,3122.57
3.40568,3125.71
3.5073,3128.74
3.60888,3132.06
3.71051,3135.15
3.81213,3137.31
3.91367,3140.51
4.01529,3143.16
4.11692,3146.25
4.2185,3148.15
4.32008,3150.62
4.4217,3153.38
4.52328,3155.56
4.62495,3158.07
4.72653,3160.38
4.82811,3162.53
4.92974,3164.87
5.03127,3166.71
5.13289,3169.34
5.23452,3171.85
5.3361,3173.74
5.43768,3175.76
5.53926,3177.66
5.64088,3179.74
5.74251,3181.67
5.84409,3183.86
5.94566,3184.74
6.04724,3187.04
6.14892,3189.27
6.25049,3190.51
6.35207,3192.09
6.4537,3194.33
6.55523,3195.8
6.65686,3196.71
6.75844,3198.62
6.86006,3200.35
6.96164,3201.55
7.06322,3203.53
7.16484,3204.22
7.26647,3206.39
7.3681,3207.77
7.46963,3209.01
7.57125,3210.09
7.67293,3211.51
7.7745,3212.24
7.87608,3214.52
7.97771,3215.3
8.07924,3215.96
8.18082,3217.42
8.28254,3218.53
8.38407,3219.75
8.4857,3220.72
8.58723,3221.42
8.68881,3221.73
8.79043,3223.06
8.89206,3224.14
8.99359,3225.24
9.09517,3226.35
9.1968,3226.43
9.29842,3228.24
9.40005,3228.46
9.50167,3229.32
9.6032,3229.88
9.70478,3231.06
9.80646,3231.33
9.90808,3232.53
10.0096,3233.33
10.1112,3234.11
10.2127,3234.17
10.3144,3234.51
10.4161,3235.81
10.5176,3236.32
10.6192,3236.36
10.7208,3237.04
10.8224,3237.25
10.924,3237.71
11.0256,3238.68
11.1272,3239.12
11.2287,3238.78
11.3305,3239.92
11.4321,3240.51
11.5337,3240.24
11.6353,3240.98
11.7368,3241.43
11.8384,3241.58
11.94,3241.89
12.0416,3240.91
12.1431,3241.13
12.2448,3242.02
12.3463,3240.84
12.448,3241.29
12.5497,3241.08
12.6513,3240.34
12.7528,3240.25
12.8544,3239.58
12.956,3238.83
13.0576,3238.33
13.1593,3237.94
13.2609,3236.56
13.3625,3235.17
13.4641,3233.83
13.5657,3231.8
13.6673,3230.14
13.7689,3228.66
13.8704,3226.26
13.972,3223.29
14.0737,3220.15
14.1753,3217.23
14.2769,3213.65
14.3785,3209.27
14.4801,3204.62
14.5816,3199.65
14.6833,3194.22
14.7849,3187.49
14.8864,3181.29
14.9881,3173.99
15.0897,3165.88
15.1913,3155.92
15.2929,3145.06
15.3945,3133.04
15.496,3119.19
15.5977,3103.98
15.6993,3086.51
15.801,3065.38
15.9025,3041.62
16.0042,3013.28
16.1058,2979.77
16.2074,2938.64
16.3091,2884.72
16.4108,2787.89
16.4656,-1062.16