Folder: MaRCN_Tensile_Ontology/data/PrimaryData/Brass (part 2)

File: Tensile_test_5.csv
Displacement (mm),Load (N)
0.00129899,2.56353
0.00148729,2.71491
0.00136874,4.3429
0.00183811,8.79548
0.00159483,12.2646
0.00191819,21.4986
0.00202735,30.8569
0.00183628,39.6443
0.00211293,55.364
0.00238521,80.2111
0.00282182,112.724
0.00284552,147.625
0.0033467,191.638
0.00368204,240.571
0.00440763,289.378
0.00507736,350.05
0.00568173,413.323
0.00662008,479.873
0.006786,548.564
0.00789865,622.19
0.00882976,699.555
0.00939481,779.568
0.0104581,853.952
0.0111576,933.708
0.0118766,994.727
0.0126117,1029.64
0.0127656,1028.31
0.0132777,1045.67
0.0141122,1078.19
0.0141128,1110.91
0.0146863,1145.67
0.0153095,1179.96
0.0159764,1210.78
0.0163047,1244.74
0.016645,1275.68
0.0169283,1296.73
0.0177324,1339.58
0.0180348,1377.57
0.0187343,1418.19
0.0193606,1457.3
0.0195591,1494.52
0.0203872,1538.8
0.0210108,1584.22
0.021703,1628.86
0.0219156,1677.72
0.0225031,1723.18
0.0234682,1779.51
0.0242,1825.32
0.0246665,1881.11
0.0254879,1935.63
0.0263868,1990.03
0.027312,2049.44
0.0281865,2109.71
0.0288235,2169.24
0.0298934,2230.35
0.0305344,2291.9
0.0316268,2358.84
0.0324976,2425.66
0.0332733,2492.58
0.0341677,2563.86
0.035272,2636.38
0.0364232,2710.52
0.0378091,2782.95
0.0386842,2857.15
0.0396901,2939.55
0.0405461,3015.44
0.0417944,3096.04
0.0429868,3178.01
0.0443153,3262.61
0.0456451,3345.83
0.0466621,3439.03
0.0479017,3530.54
0.0492464,3619.97
0.0504107,3712.26
0.0520195,3806.88
0.0534145,3904.63
0.0546067,4000
0.0561601,4097.75
0.0573548,4197.95
0.058919,4299.68
0.0606042,4399.83
0.0619829,4506.34
0.0639148,4616.96
0.065457,4726.69
0.0673156,4834.98
0.0690529,4950.23
0.0703541,5059.33
0.0723794,5178.25
0.0742186,5293.35
0.0758797,5414.42
0.0779626,5534
0.0800727,5651.26
0.0821695,5776.28
0.0839329,5900.06
0.0860841,6026.45
0.0887237,6152.4
0.0908815,6281.41
0.0934212,6413.13
0.0958831,6547.99
0.0986255,6681.98
0.101234,6821.62
0.103485,6957.68
0.106589,7097.82
0.109714,7242.19
0.112465,7381.91
0.115546,7526.82
0.118804,7669.46
0.122172,7816.02
0.125382,7964.42
0.128877,8109.96
0.132444,8256.53
0.135926,8404.37
0.140144,8554.22
0.143863,8704.85
0.14853,8857.18
0.152344,9010.69
0.157217,9163.2
0.161675,9313.13
0.166244,9462.13
0.171519,9612.57
0.1766,9736.56
0.195238,10284.1
0.21398,10703.9
0.235082,11104.7
0.259068,11484.5
0.286032,11828.5
0.31621,12135.4
0.350649,12405.3
0.39012,12636.5
0.43407,12825.2
0.48245,12975.75
0.535619,13097.3
0.593185,13195.5
0.653728,13277.3
0.717255,13342.2
0.783061,13402.2
0.850577,13451.9
0.919293,13495.8
0.989104,13539.5
1.05953,13575.4
1.13074,13609.3
1.20265,13645.2
1.28413,13676.6
1.38994,13704.7
1.49576,13736.8
1.60158,13760.2
1.70739,13786.7
1.81326,13811.9
1.91912,13834
2.02489,13856.1
2.13076,13880
2.23667,13900.8
2.34239,13921.4
2.44825,13940.2
2.55416,13959
2.65994,13978.3
2.76575,13995.4
2.87157,14014
2.97734,14030
3.08325,14043.8
3.18907,14064.7
3.29484,14078.6
3.4007,14092.2
3.50652,14109
3.61238,14122.9
3.7182,14135.7
3.82406,14149.7
3.92984,14164.2
4.0357,14174.5
4.14152,14189
4.24738,14201
4.3531,14212.9
4.45901,14226.3
4.56488,14238.5
4.6706,14248.1
4.77651,14263.5
4.88238,14270.3
4.9881,14282.7
5.09401,14294.6
5.19983,14302.5
5.30565,14314
5.41156,14324.7
5.51742,14334
5.62314,14343.2
5.72905,14352.1
5.83487,14361.6
5.94069,14370.3
6.04651,14378.6
6.15237,14388.1
6.25809,14396.7
6.364,14404.7
6.46982,14412.6
6.57559,14420.1
6.68146,14426.9
6.78732,14436
6.89314,14443.3
6.99895,14447.1
7.10482,14457.3
7.21068,14462.7
7.3165,14469.3
7.42236,14479.3
7.52818,14482.9
7.63395,14490.5
7.73986,14498.9
7.84568,14502.7
7.95145,14508
8.05736,14516.9
8.16318,14519.2
8.26895,14525.5
8.37486,14531.4
8.48067,14535.8
8.58644,14540.2
8.6924,14544.8
8.79827,14551.2
8.90394,14557.2
9.0099,14559.2
9.11572,14565.1
9.22153,14570.1
9.32731,14573.6
9.43322,14578
9.53889,14582
9.64485,14586.3
9.75057,14590.8
9.85644,14593.5
9.9623,14595.5
10.0682,14600.9
10.174,14603.1
10.2799,14606.1
10.3857,14611
10.4915,14610.7
10.5973,14615.5
10.7032,14619.8
10.809,14621.2
10.9148,14622.2
11.0207,14627.8
11.1265,14626.5
11.2322,14632.5
11.3382,14632.1
11.4439,14633.3
11.5498,14636.6
11.6557,14636.1
11.7615,14637.2
11.8673,14639
11.9732,14639.8
12.079,14639.4
12.1848,14641
12.2907,14641.9
12.3965,14640.7
12.5023,14646.1
12.6082,14640.7
12.7139,14643.6
12.8197,14639.9
12.9256,14637.9
13.0314,14635.1
13.1373,14632.7
13.2431,14627.8
13.349,14625.1
13.4548,14620.9
13.5606,14611.3
13.6665,14606.6
13.7724,14599.8
13.8781,14590.9
13.984,14579.3
14.0898,14566.4
14.1956,14553.2
14.3015,14539
14.4074,14520.4
14.5131,14498.9
14.6191,14478.3
14.7249,14451.2
14.8307,14421.5
14.9366,14386.4
15.0424,14349.7
15.1481,14304.5
15.2541,14247.4
15.3599,14186.6
15.4657,14094.4
15.5716,13906.8
15.6775,13558.6
15.7834,12900.8
15.8905,4087.84
15.9141,-4297.26