Folder: MaRCN_Tensile_Ontology/data/PrimaryData/Steel_4130

Note: README.md
# MaRCN_Tensile_Ontology
 Exercise on FAIR Tensile data under RDF files

File: Tensile_002.csv
Displacement (mm),Load (N)
-0.000225145,-21.3756
5.08721e-06,-19.5659
0.000112715,-17.675
8.85234e-05,-14.2957
8.51067e-05,-6.89549
7.35421e-05,2.20438
0.00012633,14.5991
0.000177914,29.5722
0.000573087,34.9534
0.000424403,64.6861
0.00103638,99.8247
0.000984248,140.389
0.00100597,190.234
0.0018979,256.42
0.00218712,322.467
0.00267321,397.643
0.00313492,482.436
0.00368207,567.846
0.00426263,666.96
0.00504732,761.799
0.00581026,866.976
0.00669995,974.387
0.00713261,1081.23
0.00793008,1185.09
0.00795053,1209.17
0.00789675,1222.72
0.00818794,1262.58
0.00814021,1304.68
0.00851403,1331.26
0.00876369,1361.48
0.00888887,1402.18
0.0091411,1443.61
0.00932396,1484.27
0.00975759,1528.91
0.0101676,1577.25
0.00999505,1625.69
0.0104442,1677.5
0.0109994,1731.33
0.0109237,1785.06
0.0116312,1841.62
0.011698,1902.5
0.0123552,1965.55
0.0126606,2026.18
0.0130423,2095.43
0.0134894,2157.88
0.0137868,2230.22
0.0143237,2297.13
0.0148058,2373.39
0.0151367,2443.47
0.0158395,2520.64
0.016391,2602.62
0.01649,2683.49
0.0170851,2762.98
0.0176152,2848.41
0.0183138,2940.33
0.018925,3032.79
0.0193223,3125.42
0.0201235,3220.64
0.0209359,3319.21
0.0211856,3425.1
0.022257,3530.53
0.0230814,3634.81
0.0238928,3742.61
0.0242975,3856.44
0.0254257,3968.73
0.0263602,4087.7
0.0268475,4203.19
0.0277404,4327.96
0.0286562,4465.09
0.0293634,4590.09
0.0304942,4722.19
0.0310808,4853.6
0.0322334,4986.29
0.0331872,5123.85
0.0345715,5262.66
0.0353093,5406.69
0.0363287,5553.35
0.0371535,5700.69
0.0388485,5854.91
0.0400258,6006.39
0.0411343,6160.94
0.0421548,6321.11
0.0437989,6483.67
0.0448358,6643.96
0.0464169,6811.25
0.047849,6981.28
0.0495766,7155.09
0.0508953,7329.56
0.0527007,7501.42
0.0546538,7683.56
0.0560406,7863.51
0.0582417,8045.97
0.0601021,8227.625
0.0620028,8412.87
0.0643737,8603.1
0.0663744,8789.6
0.0690286,8977.75
0.0711667,9164.01
0.0738422,9355.11
0.076885,9540.14
0.0799717,9727.92
0.0832873,9910.94
0.0865447,10092.5
0.0904963,10274.7
0.0951373,10453.8
0.0997633,10620.5
0.10533,10786.8
0.111783,10951.4
0.118126,11104.3
0.125807,11246.4
0.133904,11382.5
0.143206,11512.6
0.15278,11636
0.162876,11750.5
0.173806,11863.6
0.185272,11969.7
0.197327,12069.8
0.209848,12166
0.223143,12258.7
0.236367,12348.5
0.252389,12561.5
0.303417,12861.6
0.355359,13079.9
0.408028,13277.2
0.461414,13460.6
0.516019,13628.8
0.570419,13784.7
0.625587,13935.4
0.680845,14072
0.736289,14202.4
0.791718,14331
0.847401,14447.9
0.903636,14565.5
0.959931,14677
1.01597,14779.2
1.07252,14883.3
1.12919,14980.4
1.18547,15069.9
1.24239,15164.5
1.34134,15247.8
1.44716,15328.8
1.55298,15412.1
1.65879,15488.9
1.76461,15562.5
1.87047,15634.7
1.97629,15705.4
2.08202,15774.4
2.18788,15835.8
2.29374,15899.1
2.39956,15960.9
2.50542,16016.8
2.61124,16073
2.71706,16127.7
2.82288,16182.3
2.92874,16232.1
3.03451,16283.3
3.14037,16328.4
3.24614,16375.3
3.35201,16418.4
3.45778,16461.2
3.56369,16504.8
3.66946,16543.8
3.77537,16582
3.88114,16620.6
3.98701,16656.4
4.09282,16686.7
4.19869,16724.2
4.3045,16755.6
4.41032,16785.4
4.51614,16820.8
4.622,16847.3
4.72777,16873.7
4.83359,16900
4.9395,16925.7
5.04527,16951.3
5.15109,16976.6
5.257,16998.8
5.36277,17020.4
5.46863,17042
5.57445,17062.7
5.68031,17085.1
5.78608,17102.4
5.89195,17122.7
5.99772,17139.8
6.10358,17155.8
6.2094,17174.4
6.31522,17190.7
6.42108,17202
6.5269,17220.2
6.63276,17233.3
6.73853,17243.6
6.84444,17257.8
6.95021,17269.3
7.05608,17278.1
7.16194,17292
7.26776,17301.3
7.37348,17309.2
7.47944,17323.6
7.58526,17331.3
7.69098,17338.4
7.79684,17349.1
7.90271,17353.2
8.00848,17359.4
8.11444,17367.9
8.22016,17371.3
8.32602,17375.4
8.43189,17381
8.53775,17387.7
8.64347,17390.8
8.74943,17393.6
8.8552,17397.1
8.96102,17402
9.06688,17404.7
9.17275,17407.3
9.27847,17409.2
9.38438,17408.7
9.4902,17413.9
9.59602,17413
9.70183,17412.3
9.8077,17412.4
9.91351,17411.7
10.0193,17410.6
10.1252,17411.3
10.2311,17408.6
10.3369,17407.3
10.4427,17408.4
10.5486,17405
10.6543,17401.1
10.7602,17398.7
10.8661,17394.1
10.9718,17389.9
11.0777,17385.5
11.1836,17380.3
11.2894,17376.7
11.3952,17369.7
11.5011,17362.2
11.6068,17358.1
11.7127,17350.6
11.8186,17343.1
11.9244,17339.4
12.0303,17328.9
12.1361,17320.6
12.2419,17315.1
12.3477,17300.6
12.4536,17294.7
12.5593,17280.1
12.6653,17268.4
12.771,17256.3
12.8769,17239.9
12.9827,17223.7
13.0886,17212.1
13.1944,17192
13.3003,17172.4
13.4061,17153
13.5119,17127.3
13.6178,17101.6
13.7237,17073.8
13.8294,17041.5
13.9353,17005.7
14.0411,16966.8
14.147,16920.5
14.2527,16871.1
14.3587,16816.4
14.4644,16752.3
14.5703,16685.4
14.6762,16609.4
14.782,16524.8
14.8879,16439.9
14.9938,16342.7
15.0995,16239.7
15.2054,16127.6
15.3113,16004.5
15.4171,15874
15.5229,15731
15.6288,15571
15.7346,15403.9
15.8405,15210.6
15.9464,14989
16.0522,14718.9
16.1581,14229.2
16.2644,11670.5
16.3101,-3970.16

File: Tensile_test_1.csv
Displacement (mm),Load (N)
0.000483611,0.456651
0.000488366,4.14496
0.0006263,11.561
0.000654377,20.4556
0.000638812,32.7321
0.000908373,47.5912
0.000960377,72.4511
0.0011305,100.576
0.00138593,140.095
0.00162357,180.784
0.0019643,230.393
0.00230431,291.322
0.00270584,352.464
0.00315531,426.484
0.0035732,505.844
0.00418491,587.103
0.00491683,676.347
0.00549756,768.35
0.00619654,867.584
0.0069688,969.086
0.00746687,1069.91
0.00854008,1182.26
0.00920318,1288.59
0.00930629,1305.68
0.00944347,1339.06
0.0100798,1421.82
0.0104292,1501.71
0.0112703,1586.24
0.0119818,1673.21
0.0124356,1766.4
0.0128409,1862.01
0.013617,1960.66
0.0144064,2060.8
0.0151071,2163.17
0.0156755,2264.98
0.0166999,2363.3
0.0171273,2437.21
0.017244,2478.14
0.0178188,2530.92
0.0180062,2587.25
0.0185357,2637.54
0.0190809,2696.43
0.0191667,2753.65
0.0199142,2815.99
0.0202852,2875.74
0.0208809,2941.11
0.0213658,2997.32
0.0217312,3065.95
0.0219261,3133.64
0.0224602,3197.14
0.0232072,3266.72
0.0238753,3338.34
0.024466,3411.76
0.0246735,3486.14
0.02554,3561.96
0.025853,3634.22
0.0265706,3711.57
0.027152,3789.22
0.0278871,3868.51
0.0284997,3953.9
0.0288734,4035.07
0.0296082,4118.13
0.0301829,4206.53
0.0312738,4294.31
0.0315344,4385.66
0.0325105,4475.9
0.033555,4597.84
0.0340829,4672.32
0.0347734,4769.28
0.0358244,4867.86
0.0365955,4973.25
0.0374259,5075.41
0.0384227,5181.02
0.0391766,5285.8
0.0401039,5398.16
0.0410661,5506.64
0.0422464,5620.98
0.0431808,5732.34
0.0440125,5847.41
0.0453701,5968.92
0.0463097,6088.43
0.0473081,6209.6
0.0481782,6333.38
0.0496681,6454.62
0.0505448,6582.39
0.0520664,6712.35
0.0529523,6843.59
0.0542914,6976.25
0.0555905,7109.9
0.0570758,7247.23
0.0585246,7387.81
0.0599028,7530.64
0.0614915,7670.92
0.0629684,7814.25
0.0645393,7958.66
0.066253,8106.42
0.0680237,8253.41
0.069668,8399.35
0.0713185,8554.3
0.0733558,8705.11
0.0751974,8862.49
0.0771233,9010.74
0.0796592,9169.35
0.0815863,9330.35
0.0842324,9487.53
0.0868673,9645.57
0.089443,9805.75
0.0924803,9967.08
0.0954519,10128.5
0.098642,10286.3
0.102585,10446.5
0.106211,10604.7
0.110426,10757.5
0.114696,10914
0.120031,11068
0.125647,11212.6
0.131583,11362.1
0.138229,11501.2
0.151325,11892.3
0.17885,12235.6
0.209365,12539.3
0.243651,12805.7
0.281607,13033.5
0.322523,13240.9
0.36654,13431.3
0.411799,13600.6
0.458373,13759.5
0.506631,13911.5
0.555884,14054.1
0.605847,14191.1
0.656394,14317.7
0.707069,14444.4
0.759181,14564
0.811123,14679.2
0.863157,14789.6
0.915817,14898
0.968711,15000.3
1.02218,15102.1
1.07554,15197.2
1.12975,15292.7
1.18413,15385.1
1.23852,15469.5
1.33294,15554.6
1.43871,15637.2
1.54453,15713.5
1.65039,15789.9
1.75625,15865.8
1.86207,15935
1.96789,16004.5
2.07375,16074
2.17952,16137.5
2.28534,16203.4
2.3912,16261.8
2.49697,16320.9
2.60275,16379.6
2.70866,16436
2.81443,16488.5
2.9202,16541.8
3.02615,16588.7
3.13192,16638.8
3.23779,16686.9
3.34361,16728.8
3.44942,16772.3
3.55529,16815.7
3.6611,16854.8
3.76692,16896.6
3.87274,16936.6
3.97856,16972.4
4.08433,17010.8
4.19024,17044.8
4.29596,17076
4.40182,17110.9
4.50764,17140.7
4.61355,17170.8
4.71932,17199.4
4.82519,17226
4.931,17254.5
5.03687,17279.4
5.14268,17305.7
5.2485,17331.1
5.35437,17354.9
5.46023,17378.4
5.566,17400.6
5.67186,17420.1
5.77763,17442.8
5.8834,17462.1
5.98931,17479.9
6.09518,17497.6
6.20095,17514.1
6.30686,17529.1
6.41263,17547.7
6.51854,17561.8
6.62436,17573.9
6.73018,17590.5
6.83599,17602.8
6.94186,17615.3
7.04763,17630.7
7.15349,17641.2
7.25926,17649.6
7.36517,17661.3
7.47099,17672.875
7.57676,17679.1
7.68262,17690.2
7.78849,17697.1
7.8943,17707.8
8.00012,17711.6
8.10594,17718.7
8.21176,17726.2
8.31762,17731
8.42348,17737.7
8.5293,17743.3
8.63512,17744.9
8.74098,17752.8
8.8468,17756.6
8.95262,17756.3
9.05843,17765
9.16425,17762.9
9.27016,17763.2
9.37598,17770.6
9.48175,17768.8
9.58761,17765.6
9.69348,17771
9.79939,17771.6
9.90511,17766.1
10.011,17770.5
10.1168,17769.3
10.2226,17767.8
10.3284,17768.5
10.4343,17764.3
10.54,17762.9
10.646,17763.3
10.7518,17756.9
10.8576,17756.2
10.9635,17752.3
11.0693,17746.6
11.1751,17742.4
11.281,17737.9
11.3868,17732
11.4926,17726.2
11.5985,17718.8
11.7043,17714.2
11.8101,17704.9
11.9161,17700.4
12.0218,17693.5
12.1277,17685.6
12.2335,17673.8
12.3393,17668
12.4451,17655.7
12.551,17643.7
12.6568,17633.6
12.7626,17618.6
12.8685,17605.3
12.9744,17590.4
13.0802,17574.1
13.186,17556.6
13.2919,17539.6
13.3977,17515.8
13.5035,17493.4
13.6093,17469.2
13.7152,17438.1
13.8209,17408.4
13.9269,17374.7
14.0327,17332.3
14.1385,17284.6
14.2444,17235.3
14.3502,17178.7
14.456,17116.2
14.562,17043.8
14.6677,16969.7
14.7735,16885.4
14.8795,16795.4
14.9853,16699
15.0911,16592
15.197,16474.9
15.3028,16351.4
15.4087,16215.8
15.5145,16070
15.6205,15911.2
15.7262,15735.3
15.8322,15544.9
15.938,15331.5
16.0438,15088.1
16.1497,14813.3
16.2556,14475.9
16.3615,13978
16.4679,7041.33

File: Tensile_test_3.csv
Displacement (mm),Load (N)
0.000735712,1.13749
0.000847733,10.9976
0.000966916,23.647
0.00123,41.6765
0.00120425,68.9246
0.00159446,102.972
0.00166461,144.143
0.00198611,191.505
0.00229015,248.81
0.00280864,308.586
0.00309113,365.847
0.00330105,434.116
0.0038147,500.347
0.00408421,566.994
0.00468074,632.612
0.00496818,694.241
0.00526643,756.612
0.00548431,788.777
0.00536108,735.911
0.00544772,741.463
0.0055498,762.38
0.00595051,790.06
0.00597394,821.624
0.0064459,851.845
0.0065453,881.647
0.00673894,908.097
0.00671777,891.027
0.00691923,930.93
0.00716399,968.273
0.00748252,1004.87
0.00790009,1043.34
0.00806783,1083.58
0.00840062,1126.09
0.00897862,1167.45
0.00931249,1210.95
0.00948542,1251.04
0.00975264,1301.78
0.0102284,1350.03
0.0104874,1396.92
0.0108619,1454.08
0.0114926,1500.42
0.0118016,1560.25
0.0123178,1612.36
0.0125891,1672.42
0.0130494,1729.24
0.0137977,1791.71
0.014153,1858.24
0.0146737,1924.41
0.0152384,1988.11
0.0156687,2053.75
0.0162892,2124.36
0.0166291,2195.76
0.0173863,2269.62
0.0177764,2342.81
0.0187536,2421.1
0.0191957,2504.86
0.0198039,2586.2
0.0205212,2668.26
0.0208429,2749.76
0.021854,2842.74
0.0224524,2925.05
0.0231691,3018.37
0.023898,3109.59
0.024481,3205.63
0.0255238,3315.67
0.0262692,3408.04
0.0270586,3510.43
0.0276563,3613.9
0.0285711,3717.75
0.0296356,3826.42
0.0305658,3935.74
0.0313459,4043.45
0.0326824,4160.73
0.0335911,4275.19
0.0343787,4395.06
0.0350566,4513.84
0.0364148,4633.26
0.0374665,4758.72
0.0385694,4879.25
0.0398066,5007.8
0.0405799,5137.81
0.0418177,5269.18
0.0426773,5402.95
0.0441145,5542.3
0.0452389,5679.29
0.046494,5819.58
0.0476467,5961.21
0.0488026,6103.96
0.0502024,6250.9
0.0517413,6399.15
0.0530035,6548.79
0.0545971,6702.02
0.0560775,6856.1
0.0575571,7008.96
0.0590943,7165.65
0.0609842,7331.63
0.0626639,7488.48
0.0645676,7653.13
0.0663483,7814.44
0.0681626,7979.12
0.0705246,8144.18
0.072583,8308.19
0.0750474,8476.14
0.0775685,8642.26
0.0805479,8809.22
0.0835127,8973.49
0.0868338,9135.12
0.0905184,9296.6
0.0945955,9457.98
0.099564,9608.03
0.104787,9752.18
0.110923,9895.31
0.117866,10030.1
0.125374,10156.9
0.133796,10278.2
0.142693,10392.5
0.152557,10503.4
0.182755,10923.2
0.220833,11175.4
0.261533,11399.8
0.304413,11601.1
0.349657,11788.2
0.396649,11960.6
0.444936,12119.3
0.494409,12268.5
0.544504,12414.7
0.595331,12552.3
0.646168,12675.6
0.69773,12802
0.749376,12922.8
0.801734,13034.7
0.854667,13146.5
0.906821,13251.1
0.959713,13351.3
1.01361,13452.8
1.06646,13546.3
1.12025,13635
1.17456,13728.4
1.22919,13811.2
1.31436,13894.7
1.42027,13978.6
1.52604,14053.9
1.63181,14128.8
1.73768,14205.6
1.84359,14274.6
1.94926,14343.1
2.05518,14407.9
2.16099,14471.1
2.26681,14535
2.37263,14592.2
2.47849,14651
2.58421,14707.1
2.69022,14759.6
2.79599,14812.5
2.90176,14864.7
3.00762,14913.3
3.11349,14962.5
3.21926,15009.8
3.32503,15051.7
3.43089,15098.5
3.53671,15135.5
3.64257,15175.7
3.74839,15216.2
3.85425,15251.4
3.96007,15286.1
4.06593,15325.5
4.1718,15357.6
4.27748,15389.9
4.38343,15424.2
4.4892,15454.1
4.59497,15483.6
4.70089,15512.5
4.80666,15540.9
4.91247,15567.7
5.01838,15593
5.1242,15617.1
5.22992,15643
5.33588,15664.4
5.44165,15686.7
5.54752,15707.6
5.65333,15726.4
5.7592,15748.7
5.86497,15767.8
5.97088,15786.9
6.07665,15806.4
6.18247,15822.2
6.28833,15836.4
6.39415,15855.9
6.49992,15868
6.60583,15881.1
6.7116,15899.2
6.81742,15907.2
6.92328,15921.5
7.02919,15934.8
7.13491,15943.9
7.24078,15954.7
7.34669,15967.9
7.45251,15975.8
7.55823,15986.1
7.66419,15996.2
7.76991,16001.7
7.87577,16014.9
7.98159,16021
8.08741,16026.6
8.19318,16031.7
8.29909,16038.6
8.40486,16044.6
8.51077,16051.5
8.61659,16054.5
8.72241,16059.8
8.82832,16064.8
8.93413,16062.4
9.0399,16069.6
9.14577,16073.6
9.25163,16073.9
9.35745,16076.9
9.46326,16079.9
9.56904,16078.8
9.67495,16081.9
9.78076,16084.3
9.88653,16081.4
9.9924,16082.7
10.0983,16081.1
10.2041,16080.4
10.31,16080
10.4159,16077.7
10.5216,16075.2
10.6275,16074.3
10.7334,16074
10.8391,16070.4
10.9449,16067.5
11.0508,16063.4
11.1566,16062.2
11.2624,16054.4
11.3683,16052.9
11.474,16047.6
11.5799,16038.6
11.6858,16036.4
11.7916,16029.4
11.8974,16021.1
12.0033,16014.2
12.1092,16010.1
12.215,15999.1
12.3208,15992.1
12.4267,15983.4
12.5324,15974.5
12.6383,15965.6
12.7442,15953.6
12.8499,15942.5
12.9558,15932.3
13.0617,15918.8
13.1674,15903.6
13.2733,15891
13.3792,15873.6
13.485,15857
13.5908,15840.1
13.6967,15819.2
13.8024,15798.1
13.9083,15773.9
14.0142,15750.8
14.1199,15721.5
14.2258,15689.6
14.3316,15656.9
14.4375,15619.4
14.5433,15571.3
14.6492,15525.8
14.755,15474.1
14.8609,15411.2
14.9667,15348.6
15.0726,15273.6
15.1784,15192.4
15.2843,15109.4
15.3901,15012.9
15.4959,14906.2
15.6018,14791
15.7077,14660.7
15.8135,14511.2
15.9194,14345.2
16.0252,14131.6
16.1311,13759.2
16.2371,12978
16.3434,9918.6
16.4375,1456.79