Folder: MaRCN_Tensile_Ontology/data/PrimaryData/Steel_1018 (part 2)

File: Tensile_test_4.csv
Displacement (mm),Load (N)
0.000704855,4.97258
0.00139919,10.3958
0.00148283,12.8643
0.00138691,12.9016
-0.000788173,15.2148
0.00150107,25.9558
-0.000145232,22.0603
0.00180108,44.8545
0.00148962,63.9453
0.00120503,86.9592
0.000267764,115.684
0.00022471,161.353
0.00224547,227.774
0.00210227,290.145
0.00238009,365.602
0.00146014,440.938
0.00418177,535.833
0.00529325,632.297
0.0037867,720.432
0.00411063,825.391
0.00471266,931.934
0.00707239,1046.42
0.00849216,1159.4
0.00897343,1259.93
0.00955103,1346.56
0.00932453,1438.53
0.0101787,1536.24
0.0116615,1633.52
0.0119426,1733.47
0.0107042,1835.31
0.0111593,1942.37
0.0135084,2055.22
0.0135817,2165.38
0.0158379,2288.48
0.0152627,2401.48
0.01726,2520.54
0.0156963,2626.88
0.0188011,2755.09
0.0178111,2865.45
0.0188555,2988.9
0.0191928,3106.83
0.0222412,3226.68
0.0204748,3322.48
0.0235763,3429.86
0.0237051,3517.07
0.0246806,3608.46
0.0253483,3690.9
0.0240694,3774.26
0.0238105,3854.64
0.0244328,3937.1
0.0275586,4030.11
0.025657,4106.2
0.0283096,4189.85
0.0269483,4267.45
0.028898,4361.46
0.0285215,4440.33
0.0305003,4532.22
0.0289976,4609.04
0.0300162,4697.53
0.032615,4796.93
0.0336594,4888.6
0.0333068,4981.23
0.0340025,5085.6
0.0348313,5177.52
0.0346069,5274.48
0.0370062,5384.97
0.0362694,5476.91
0.0364326,5585.65
0.0390722,5698.41
0.0405004,5825.92
0.0391972,5929.77
0.0425888,6055.83
0.0407193,6159.1
0.0415195,6279.39
0.0451639,6413.92
0.0467238,6542.35
0.0458324,6661.79
0.0463288,6788.59
0.0497826,6924.64
0.0500865,7053.61
0.0523197,7194.82
0.0529507,7327.5
0.0547077,7467.83
0.0540144,7600.79
0.0567506,7752.27
0.0587839,7892.47
0.060347,8047.62
0.0623458,8190.32
0.0638567,8340.63
0.0638468,8487.26
0.0649866,8641.79
0.0695644,8808.02
0.0702502,8961.11
0.0716995,9111.18
0.0738941,9270.92
0.0762434,9437.66
0.0806466,9606.13
0.0821316,9760.3
0.0838206,9919.67
0.0894211,10091.1
0.0903316,10243
0.0957662,10415.1
0.0971681,10565
0.102386,10732.4
0.107491,10891
0.111624,11044.8
0.114718,11187.4
0.122958,11345.3
0.126271,11479.5
0.133955,11620.8
0.140477,11743.9
0.148619,11868.9
0.160415,11989.9
0.169591,12091.3
0.180382,12185.1
0.192641,12271.7
0.205252,12344.8
0.2164,12397.5
0.23098,12452.3
0.24638,12503.3
0.267657,12700.4
0.325266,12836.3
0.39069,12912
0.453961,12950.8
0.524146,13001.9
0.592676,13037.4
0.661977,13053.8
0.730715,13070.8
0.804477,13098.5
0.875318,13115.5
0.94585,13128.6
1.01889,13144.2
1.09321,13158.7
1.16569,13174
1.23904,13182.5
1.33807,13189
1.44398,13197.3
1.5498,13213.2
1.65562,13208
1.76148,13228.5
1.86735,13223
1.97302,13225.2
2.07903,13245.1
2.1848,13245.9
2.29057,13252.5
2.39648,13261.1
2.5023,13261
2.60807,13259
2.71398,13261
2.81984,13260.8
2.92556,13270.3
3.03147,13268.3
3.13729,13282.7
3.24311,13271.7
3.34897,13284
3.45479,13281.2
3.56061,13287.9
3.66642,13280
3.77233,13279.5
3.87806,13289.6
3.98402,13280.625
4.08983,13282.4
4.1956,13282.1
4.30147,13293.1
4.40728,13283.5
4.51315,13294
4.61892,13293.7
4.72478,13296.1
4.8306,13284.6
4.93646,13293.8
5.04233,13295.5
5.14815,13283.4
5.25392,13283.7
5.35983,13289
5.46569,13276.5
5.57146,13287
5.67737,13286.7
5.78319,13282.1
5.88896,13271.25
5.99487,13276.7
6.10064,13276.7
6.20646,13263.6
6.31237,13276.2
6.41818,13272.9
6.52391,13264.6
6.62986,13268.1
6.73568,13266.4
6.8415,13261.9
6.94732,13256.3
7.05318,13249.3
7.159,13246
7.26486,13248.1
7.37063,13239.1
7.47645,13233
7.58231,13230.5
7.68818,13226
7.79395,13223.9
7.89981,13216.7
8.00568,13219
8.11145,13218.1
8.21731,13213.3
8.32322,13200
8.42899,13207.9
8.53476,13197.5
8.64072,13196.2
8.74649,13186.4
8.85231,13178.7
8.95822,13171.8
9.06394,13169.5
9.16981,13175.3
9.27562,13154.5
9.38144,13150.7
9.4873,13147.4
9.59317,13148
9.69894,13134
9.8048,13126.4
9.91066,13124.5
10.0165,13119.5
10.1223,13116.7
10.2282,13100.2
10.334,13087
10.4398,13085.1
10.5457,13084.4
10.6515,13080.4
10.7573,13055.8
10.8632,13057.6
10.969,13052.7
11.0748,13033.9
11.1807,13026.6
11.2865,13022.8
11.3924,13001.5
11.4981,12987.6
11.604,12977.9
11.7098,12967.6
11.8157,12957.1
11.9215,12938.2
12.0274,12926.5
12.1332,12910.6
12.2391,12889.8
12.3449,12872.5
12.4507,12856.4
12.5566,12829.9
12.6624,12811.6
12.7682,12787
12.8741,12758.7
12.9799,12721.3
13.0857,12699.3
13.1916,12664.8
13.2974,12627.9
13.4033,12587.1
13.5091,12535.9
13.615,12508
13.7208,12454.8
13.8267,12405.4
13.9324,12343.9
14.0383,12290.9
14.1441,12234.1
14.2499,12162.3
14.3558,12094.4
14.4615,12025.5
14.5674,11943.4
14.6733,11849.4
14.7792,11764.5
14.885,11663.4
14.9909,11563
15.0967,11459
15.2026,11345
15.3085,11231.8
15.4143,11101.6
15.5202,10960
15.626,10801.4
15.7319,10654.2
15.8377,10478
15.9435,10302.4
16.0494,10093.7
16.1553,9879.2
16.2611,9639.31
16.3671,9372.66
16.4729,9081.67
16.5788,8755.39
16.6847,8347.95
16.791,4555.59
16.8812,1251.66

File: Tensile_test_5.csv
Displacement (mm),Load (N)
0.000130242,1.19146
0.00036061,9.0691
0.000206356,17.3602
0.000448445,28.0717
0.000727778,48.115
0.000711544,76.7648
0.000775611,111.611
0.00112991,146.843
0.00138233,181.467
0.00142764,212.83
0.0016499,229.213
0.00165855,241.195
0.00168438,256.248
0.00190573,278.041
0.00205377,300.248
0.0017335,273.819
0.00197428,290.97
0.00188639,310.707
0.00202697,332.89
0.00216089,351.699
0.00246189,377.52
0.00249665,403.398
0.0026206,423.591
0.00276409,449.208
0.00289263,479.391
0.00290186,508.324
0.00303911,538.84
0.00341711,568.444
0.00358567,600.444
0.00370046,634.495
0.00387794,668.284
0.00416887,705.457
0.00438747,741.52
0.00466291,782.805
0.00457078,821.225
0.004789,864.134
0.00522877,911.354
0.00553106,954.883
0.00575467,1002.19
0.00608125,1054.54
0.00638301,1101.37
0.00640701,1160.24
0.00714162,1208.8
0.00725986,1265.95
0.00762677,1322.19
0.00804565,1380.35
0.00822132,1439.28
0.00862362,1504.18
0.00888121,1563.38
0.00963572,1628.82
0.00965704,1695.25
0.0102952,1764.39
0.0106528,1835.17
0.0112109,1906.48
0.011654,1980.33
0.0122422,2057.46
0.0125397,2136.5
0.0131503,2214.34
0.0134019,2293.52
0.0140633,2380.05
0.0143532,2460.85
0.0150265,2550.03
0.0156243,2636.62
0.0162156,2730.69
0.0166684,2827.31
0.0174891,2921.15
0.0178638,3021.29
0.0186962,3118.83
0.0191749,3217.64
0.0199876,3321.29
0.0205155,3425.87
0.0215608,3533.92
0.0221382,3646.81
0.0231822,3756.73
0.0237441,3873.6
0.0245719,3987.69
0.0254138,4106.52
0.0263204,4234.67
0.0272809,4358.27
0.0280312,4483.98
0.0289515,4613
0.0297698,4744.79
0.0308804,4875.38
0.0318151,5012.18
0.032918,5147.8
0.0339307,5287.85
0.035135,5431.32
0.0362216,5576.2
0.0376506,5726.52
0.0385212,5875.75
0.0398612,6028.84
0.0409961,6179.04
0.0425801,6336
0.0434696,6494.4
0.0454899,6653.92
0.0466121,6814.5
0.0483877,6984.25
0.0497849,7146.46
0.0515097,7313.67
0.0531488,7483.9
0.0551067,7651.63
0.0566683,7822.02
0.0584917,7998.21
0.0603991,8174.01
0.0625028,8351.48
0.0647634,8528.17
0.0672258,8708.28
0.0694657,8890.97
0.0720897,9069.49
0.0744965,9246.36
0.0772656,9429.61
0.0802472,9604.77
0.083304,9786.97
0.0863249,9963.22
0.0899719,10146.3
0.0937802,10324.6
0.0975973,10500.2
0.101918,10673.3
0.11754,11289.4
0.135612,11712.3
0.158207,12080.6
0.186864,12373.6
0.222828,12594
0.266078,12756.3
0.316423,12866.4
0.372291,12940.7
0.431551,12997.2
0.49436,13040.6
0.55897,13077.2
0.624635,13103.5
0.692119,13129.4
0.760132,13151.8
0.829203,13170.2
0.898421,13189.5
0.968455,13204.8
1.03915,13219.1
1.11043,13232
1.18173,13243.4
1.25577,13253.1
1.36163,13266.7
1.46745,13273.5
1.57326,13281.2
1.67908,13292.4
1.78495,13295.9
1.89072,13301.7
1.99663,13311
2.10249,13312.6
2.20821,13316.3
2.31413,13322.1
2.4199,13323.1
2.52571,13329.2
2.63162,13331.2
2.73744,13331.7
2.84321,13335.1
2.94917,13339.8
3.05499,13339.6
3.16071,13343.2
3.26667,13344.9
3.37248,13346.8
3.4783,13346.1
3.58412,13347.4
3.68998,13348.9
3.79571,13346.9
3.90157,13346.6
4.00739,13346.5
4.11325,13343.8
4.21911,13342.1
4.32493,13346.9
4.43075,13345.2
4.53657,13342.5
4.64243,13345
4.7482,13341.7
4.85406,13340.1
4.95993,13341.7
5.0657,13338.1
5.17156,13336.1
5.27747,13337
5.38324,13332.9
5.48901,13331.2
5.59497,13329.3
5.70074,13323.8
5.80661,13323.3
5.91247,13319
6.01824,13315.3
6.12406,13316.6
6.22997,13312.1
6.33574,13309.6
6.44156,13308.3
6.54747,13303.8
6.65324,13302.5
6.7591,13299.2
6.86492,13292.6
6.97078,13291
7.0766,13287
7.18246,13279.2
7.28823,13279.2
7.3941,13273.9
7.49996,13268.5
7.60573,13265.9
7.7116,13261.9
7.81741,13255.6
7.92323,13252.3
8.02909,13247.3
8.13491,13243
8.24073,13237.4
8.34659,13231.3
8.45241,13225.5
8.55827,13222.7
8.66418,13214.1
8.76991,13209.5
8.87582,13204.2
8.98164,13197
9.0875,13190.9
9.19332,13184.2
9.29913,13178.2
9.4049,13173.1
9.51086,13164.9
9.61658,13158.9
9.72245,13151.8
9.82827,13141.8
9.93413,13135.9
10.0399,13130.6
10.1458,13117.5
10.2516,13111.5
10.3575,13100
10.4633,13090.8
10.5692,13080.4
10.675,13070.7
10.7808,13061.1
10.8866,13051.6
10.9925,13038.6
11.0983,13026.7
11.2041,13017.2
11.31,13002.1
11.4158,12988.9
11.5216,12973.5
11.6275,12959.3
11.7333,12941.4
11.8392,12922.8
11.945,12906.3
12.0508,12886.5
12.1567,12864.1
12.2625,12842.3
12.3684,12820.4
12.4742,12792.3
12.5801,12766.4
12.6858,12738.7
12.7917,12704.5
12.8975,12673.4
13.0034,12635.1
13.1092,12594
13.2151,12553.9
13.3209,12507.3
13.4267,12454.1
13.5326,12405.8
13.6384,12345.6
13.7442,12287.2
13.8501,12226.1
13.9559,12156
14.0617,12082.6
14.1676,12010.9
14.2735,11927.6
14.3792,11842.1
14.4852,11752
14.591,11654.6
14.6968,11547.1
14.8027,11437.9
14.9086,11317.1
15.0143,11190.7
15.1203,11054.2
15.2262,10908.7
15.3319,10752.8
15.4379,10584.8
15.5437,10401.1
15.6495,10204
15.7554,9986.55
15.8613,9746.03
15.9671,9479.04
16.073,9178.05
16.1789,8830.14
16.2847,8426.83
16.3907,7939.27
16.4472,6961.26

File: Tensile_test_6.csv
Displacement (mm),Load (N)
-0.00109404,-9.30708
0.000189593,-3.95267
0.000778627,-0.802782
0.000543066,0.335391
0.00128621,11.0928
-0.00057666,12.2001
0.0011215,28.9949
0.000342501,36.2212
-0.000264304,48.9416
0.00154478,84.9523
0.000638527,111.592
0.00227528,155.764
0.000589531,192.56
0.00303558,257.492
0.000753127,301.439
0.000999067,332.598
0.00133394,341.431
0.00117974,334.534
0.00238875,360.509
0.00161604,371.89
0.00175844,405.699
0.00242864,426.685
0.00360791,464.043
0.00362968,490.277
0.00314226,510.979
0.00320447,549.834
0.00295414,581.274
0.00499989,625.182
0.00285415,649.567
0.00365974,687.17
0.00555454,732.746
0.00578261,773.379
0.00451977,804.628
0.00576663,851.265
0.00435857,889.432
0.0054231,938.654
0.00570824,980.255
0.00720759,1033.26
0.00558417,1066.55
0.00636208,1120.98
0.00786787,1177.92
0.00594349,1219.93
0.00586175,1270.56
0.00616257,1323.5
0.00886455,1388.37
0.00739346,1445.32
0.00793816,1499.52
0.00963197,1566.49
0.00984775,1634.55
0.00968339,1692.35
0.010818,1760.83
0.0113082,1831.56
0.0110966,1902.85
0.0104773,1972.68
0.010432,2042.81
0.0128013,2127.52
0.0108913,2193.87
0.0128054,2279.88
0.0139153,2358.22
0.0126408,2435.85
0.0145546,2532.31
0.0149809,2620.46
0.0162915,2708.31
0.0156543,2800.6
0.0177176,2894.33
0.0164836,2982.64
0.019117,3084.23
0.0194865,3197.23
0.0182942,3292.49
0.0187846,3398.74
0.0192709,3497.86
0.0212355,3609.12
0.022112,3721.48
0.0240723,3843.64
0.0250207,3957.94
0.0240292,4064.28
0.0261684,4183.95
0.0276335,4304.7
0.0269173,4421.22
0.0279807,4552.25
0.0307386,4680.63
0.0315776,4806.2
0.0302381,4925.44
0.0317857,5053.76
0.033183,5192.6
0.0357348,5338.04
0.036674,5466.61
0.037624,5598.85
0.0372299,5732.66
0.0396292,5879.13
0.040784,6020.3
0.041421,6163.01
0.0449466,6317.07
0.0447263,6455.65
0.047471,6611.06
0.0487169,6762
0.0490168,6911.25
0.0506431,7064.17
0.0540571,7228.24
0.0568873,7393.46
0.0573658,7544.57
0.0606212,7710.74
0.0632075,7874.35
0.0654103,8028.68
0.0675994,8185.92
0.067979,8346.1
0.0732141,8520.7
0.0758232,8684.4
0.0775303,8837.81
0.082235,9006.57
0.084806,9160.61
0.0902896,9326.98
0.0936472,9480.58
0.0973436,9632.46
0.101976,9778.28
0.107638,9929.99
0.112997,10060.9
0.118996,10201.3
0.125974,10327.4
0.134762,10459.1
0.143643,10669.3
0.175268,11037.6
0.21712,11262.1
0.262316,11411.6
0.313708,11514
0.373101,11587.1
0.436264,11639.8
0.502565,11685.3
0.571875,11726
0.639929,11750.2
0.711007,11781
0.779473,11789.3
0.853413,11819
0.92441,11834.9
0.99545,11846.2
1.06968,11868.8
1.14176,11881.8
1.21451,11884.6
1.30441,11900.6
1.41023,11908.1
1.51605,11920.8
1.62186,11923.1
1.72773,11928.9
1.8335,11943.8
1.93941,11947.6
2.04527,11949
2.15109,11959.6
2.25691,11952.4
2.36277,11960.6
2.46859,11965.2
2.5744,11971.6
2.68027,11974
2.78608,11967
2.89186,11981.5
2.99777,11975.1
3.10354,11982.8
3.2094,11987.9
3.31522,11980.6
3.42103,11984
3.5269,11991.2
3.63276,11979
3.73858,11986.5
3.84449,11980.4
3.95026,11977.3
4.05608,11989.9
4.16199,11980
4.26771,11981.5
4.37358,11986.7
4.47939,11982.5
4.58521,11978.8
4.69103,11987.3
4.79689,11984.4
4.90266,11977.7
5.00857,11982.4
5.11439,11980.6
5.22025,11966.6
5.32612,11972.7
5.43198,11967.9
5.5378,11961.5
5.64362,11969.5
5.74943,11957
5.85525,11952.4
5.96111,11962.5
6.06693,11960.9
6.17275,11945.4
6.27861,11942.7
6.38438,11948.7
6.49034,11940.3
6.59606,11943.2
6.70193,11940.6
6.80779,11928.2
6.91361,11919.9
7.01943,11924.7
7.12529,11920.8
7.23106,11914.4
7.33692,11910.6
7.44279,11905.1
7.54856,11898.7
7.65442,11904.4
7.76024,11901.1
7.86606,11895.4
7.97187,11880
8.07774,11883.6
8.18355,11875.6
8.28942,11872.8
8.39533,11868.5
8.50115,11861.5
8.60696,11853.9
8.71283,11844.3
8.81864,11845.7
8.92441,11834
9.03028,11829.6
9.1361,11825.8
9.24191,11812.4
9.34778,11810.5
9.45359,11808.7
9.55941,11789.4
9.66527,11785.7
9.77119,11777.1
9.87691,11765.3
9.98282,11764.7
10.0886,11754.2
10.1945,11740.8
10.3003,11744.4
10.4062,11731.8
10.5119,11727.3
10.6178,11719
10.7237,11699
10.8294,11698.4
10.9353,11689.5
11.0411,11666.4
11.1469,11665.8
11.2527,11647.6
11.3585,11642.7
11.4644,11627.6
11.5703,11606.6
11.6762,11596.2
11.7819,11575.5
11.8879,11557.2
11.9937,11548.8
12.0995,11523.875
12.2053,11509.6
12.3112,11489.1
12.4169,11464.2
12.5229,11434.6
12.6287,11411.5
12.7345,11392.9
12.8404,11361.1
12.9462,11323.7
13.052,11291
13.1578,11254.1
13.2637,11208.1
13.3695,11164.3
13.4753,11115.6
13.5812,11066.7
13.6871,11015.9
13.7928,10955.5
13.8988,10892.7
14.0046,10823.7
14.1103,10755
14.2163,10680.2
14.3221,10595.5
14.4279,10518.8
14.5338,10420.4
14.6397,10327.7
14.7455,10214.2
14.8514,10108.6
14.9573,9995.56
15.063,9870.68
15.169,9727.41
15.2748,9592.67
15.3807,9436.39
15.4865,9263.48
15.5923,9081.06
15.6981,8885.14
15.804,8675.78
15.9098,8438.13
16.0157,8175.93
16.1217,7897.65
16.2275,7573.54
16.3333,7200.28
16.4393,6750.93
16.5457,2427.7
16.5546,-3635.45