Folder: MaRCN_Tensile_Ontology/data/PrimaryData/Steel_1018

Note: README.md
# MaRCN_Tensile_Ontology
 Exercise on FAIR Tensile data under RDF files

File: Tensile_002.csv
Displacement (mm),Load (N)
0.000736616,-31.6536
0.000691446,-31.2005
0.000589147,-28.477
0.000409709,-22.004
0.000495417,-12.6346
0.000525294,0.174052
0.000720055,15.7244
0.00078589,40.926
0.00100194,71.7601
0.00117564,108.95
0.00168089,156.841
0.0018343,206.436
0.00193137,257.26
0.00253521,310.907
0.00260604,361.506
0.002979,392.224
0.00293755,399.182
0.00279539,405.72
0.00305715,432.893
0.00308031,458.772
0.00357172,494.26
0.00348961,523.388
0.00380747,563.267
0.00391302,596.48
0.00431278,627.937
0.00415384,637.931
0.00445033,660.099
0.00464703,691.415
0.00467754,722.934
0.00472584,756.735
0.00511939,793.815
0.00510269,830.487
0.0053443,870.657
0.00543366,906.858
0.00595026,950.219
0.00605054,995.043
0.00638885,1043.48
0.00633339,1092.84
0.00662598,1139.82
0.00712357,1189.71
0.00748717,1243
0.0076188,1297.31
0.00792436,1351.24
0.00826558,1414.65
0.00851595,1467.93
0.009024,1534.74
0.00941162,1595.02
0.00959817,1664.17
0.0101002,1731.99
0.0103855,1799.98
0.0107514,1874.03
0.0110433,1950.33
0.0117485,2029.65
0.0123,2106.44
0.0125683,2186.24
0.0131984,2270.45
0.0137648,2356.4
0.0143122,2444.76
0.0147042,2530.51
0.0152762,2618.26
0.0156301,2709.4
0.0166316,2808.03
0.0170618,2902.69
0.0175715,2999.84
0.0184171,3104.55
0.0189039,3204.35
0.0198651,3315.11
0.0206773,3440.98
0.0212355,3540.93
0.0220139,3652
0.0230835,3765.66
0.0239694,3884.79
0.0245619,4002.39
0.0255358,4123.89
0.0266788,4247.13
0.0278145,4374.33
0.028608,4501.99
0.0297778,4635.62
0.030729,4768.18
0.0318257,4906.85
0.032916,5042.33
0.033891,5178.94
0.0354334,5320.76
0.0366144,5467.09
0.0381619,5610.35
0.0391586,5760.29
0.0408511,5913.58
0.0422174,6065.27
0.0437358,6224.44
0.0455953,6379.11
0.0468748,6535.72
0.0488778,6696.04
0.0504917,6858.44
0.0523373,7023.03
0.0543279,7186.93
0.0562673,7348.31
0.0583785,7515.75
0.0606123,7686.86
0.0632734,7850.95
0.0658018,8026.74
0.0680431,8193.74
0.0709701,8365.5
0.0739719,8532.72
0.0770432,8703.65
0.0803743,8872.62
0.0838992,9036.5
0.087826,9200.85
0.0916214,9364.58
0.0959952,9531.8
0.100792,9692.85
0.105871,9850.02
0.111174,10003.1
0.116941,10156.7
0.123208,10302.1
0.130038,10449.4
0.137309,10586.5
0.145362,10717.125
0.153905,10850
0.162934,10976.7
0.172718,11096
0.182676,11205.5
0.222348,11697.2
0.264923,11981.2
0.309714,12230.8
0.356957,12455
0.405649,12657
0.45553,12849.7
0.506636,13026.8
0.558189,13195.7
0.610053,13360.7
0.66252,13514.2
0.71534,13659.1
0.768049,13802.8
0.820865,13936.6
0.874263,14069.5
0.927846,14199.5
0.981628,14317.5
1.03535,14439.4
1.0896,14553.7
1.14413,14660.1
1.19891,14767.7
1.25719,14872.8
1.36296,14970.4
1.46883,15067.8
1.57465,15158.7
1.68046,15248
1.78628,15337.8
1.89214,15417
1.99792,15502.5
2.10378,15579.6
2.20964,15654.9
2.31541,15728.3
2.42118,15802.6
2.52705,15868.7
2.63286,15937.1
2.73868,16005.4
2.8445,16064.8
2.95032,16127.3
3.05623,16182.4
3.162,16240.1
3.26781,16296.4
3.37368,16348.3
3.47945,16399.4
3.58531,16451.2
3.69118,16499.3
3.7969,16547.5
3.90281,16593.8
4.00853,16637.5
4.1144,16681.5
4.22022,16720.9
4.32608,16763.7
4.4319,16802.6
4.53781,16837.4
4.64358,16876.3
4.74944,16912.5
4.85526,16942.5
4.96112,16977.9
5.06689,17012.1
5.17276,17037.9
5.27857,17070
5.38439,17100.6
5.49021,17124.1
5.59603,17154.3
5.70184,17178.8
5.80766,17202.7
5.91352,17228.4
6.01943,17252.6
6.12521,17272.9
6.23102,17297.375
6.33689,17317.25
6.4427,17337.6
6.54847,17357.3
6.65438,17376
6.76016,17393.1
6.86602,17410.8
6.97188,17427.9
7.07765,17443.9
7.18347,17457.5
7.28933,17471.4
7.39515,17490.7
7.50092,17497
7.60683,17513.125
7.7126,17526.4
7.81847,17536.6
7.92433,17548.4
8.03015,17559.5
8.13597,17566.7
8.24183,17581.2
8.34769,17588.8
8.45346,17593.9
8.55933,17607.3
8.66514,17610.6
8.77096,17617.5
8.87683,17627.7
8.9826,17632.1
9.08841,17637.5
9.19432,17646.2
9.30019,17649.3
9.40591,17653.7
9.51187,17660.6
9.61759,17661.5
9.7235,17664.3
9.82927,17669
9.93518,17669.7
10.0409,17672.2
10.1469,17676.1
10.2527,17676.2
10.3584,17678
10.4643,17677.9
10.5701,17678.8
10.6759,17679.5
10.7818,17679.4
10.8876,17680.6
10.9934,17677.2
11.0993,17674.9
11.2051,17677.3
11.3109,17671
11.4168,17667.2
11.5227,17669.875
11.6285,17665.3
11.7343,17657.2
11.8402,17658.7
11.9459,17652.2
12.0518,17643.7
12.1577,17640
12.2634,17634
12.3692,17627.5
12.4752,17620.8
12.5811,17614
12.6868,17604.7
12.7927,17598.8
12.8985,17585.5
13.0043,17577.4
13.1102,17564.6
13.216,17552.8
13.3218,17538.8
13.4277,17526.4
13.5335,17511.3
13.6393,17494.2
13.7452,17473.2
13.851,17453.6
13.9568,17428.5
14.0627,17399.9
14.1685,17372.8
14.2743,17338.625
14.3802,17298.8
14.4861,17257.2
14.5918,17207.4
14.6978,17151.9
14.8036,17090.7
14.9094,17021.1
15.0152,16944.1
15.1211,16863.7
15.2269,16768.8
15.3328,16673.5
15.4387,16565.7
15.5445,16444.9
15.6503,16321.6
15.7562,16184.6
15.8621,16032.9
15.9679,15871.2
16.0737,15693.9
16.1796,15496.5
16.2855,15285.6
16.3914,15039.5
16.4972,14719
16.6031,14290
16.7093,12232.2
16.8154,9599.52
16.8687,-4269.48

File: Tensile_003.csv
Displacement (mm),Load (N)
0.000414736,0.0882291
0.000391995,8.53149
0.000494587,17.9718
0.000463991,37.4502
0.000595395,64.034
0.000979751,94.7725
0.00111713,131.13
0.00152676,177.21
0.00164139,233.675
0.00204428,293.067
0.00232538,352.595
0.00299925,422.886
0.00288648,482.422
0.00363983,541.858
0.00378975,596.899
0.00416566,648.296
0.0045781,697.143
0.0045948,675.502
0.00446878,655.8
0.00442474,681.496
0.00454303,706.735
0.00490241,741.592
0.00516773,777.826
0.00534707,810.09
0.00568425,843.282
0.00607633,883.952
0.00607707,923.567
0.00635311,967.668
0.00672711,1007.18
0.0071754,1049.47
0.00742076,1093.34
0.00807362,1141.22
0.00807036,1188.81
0.00839863,1235.79
0.00890761,1279.73
0.0094281,1330.64
0.0098701,1382.24
0.0101449,1431.66
0.0105963,1488.38
0.010955,1544.25
0.0113543,1600.51
0.0120934,1659.78
0.0121526,1721.17
0.0127263,1779.43
0.0130847,1845.65
0.0138218,1903.06
0.0141399,1969.99
0.0146519,2032.25
0.0150323,2103
0.0155157,2168.83
0.0160906,2236.82
0.0165117,2306.24
0.0169769,2370.68
0.0175217,2436.88
0.0179156,2504.22
0.0178627,2574.54
0.0189133,2647.75
0.0193768,2720.1
0.0200506,2795.55
0.0202015,2872.1
0.0208976,2954.1
0.0216702,3033.39
0.0223976,3113.2
0.0228884,3193.49
0.0233657,3280.03
0.0241109,3369.13
0.0246753,3452.82
0.0252471,3559.51
0.0259217,3645.38
0.026905,3741.09
0.0277364,3838.18
0.0284974,3934.05
0.0291912,4037.19
0.0300869,4138.58
0.0308411,4240.51
0.0319213,4346.28
0.0328204,4456.26
0.0337638,4564.78
0.0344696,4676.88
0.0358237,4788.09
0.0369739,4900.43
0.0378364,5014.31
0.0387033,5128.39
0.0400767,5249.41
0.0412878,5371.72
0.0425577,5491.51
0.0438409,5617.37
0.0448806,5746.91
0.0463902,5871.31
0.0476469,6005.65
0.0491766,6133.98
0.0504396,6269.47
0.0519227,6405.52
0.0537874,6541.12
0.0555162,6681.34
0.0570561,6823.13
0.058956,6964.84
0.0606802,7107.66
0.0625912,7252.97
0.0645687,7394.97
0.0668914,7542.12
0.0688956,7687.53
0.0714255,7835.43
0.0738238,7984.19
0.0761827,8138.54
0.0788422,8294.01
0.081662,8443.43
0.0847499,8598.9
0.0880196,8750.09
0.0914493,8904.63
0.0951098,9053.28
0.0990078,9206.9
0.103192,9354.33
0.10784,9500.78
0.11283,9646.9
0.118234,9790.08
0.124046,9927.73
0.130454,10059.9
0.137839,10187.9
0.14587,10308.4
0.154859,10420.9
0.164745,10523.5
0.175075,10616.3
0.186726,10701.6
0.222454,11037.8
0.271206,11177.5
0.325273,11270.8
0.382908,11332.8
0.442624,11379.6
0.504499,11415.3
0.567477,11445
0.631369,11466.4
0.695557,11490.5
0.760851,11505.9
0.826582,11525.1
0.892625,11538.9
0.958958,11554.7
1.02591,11564.4
1.09324,11576.1
1.16069,11581.5
1.22835,11590.8
1.31697,11599.2
1.41575,11606.7
1.51444,11613.7
1.61327,11617.6
1.71211,11622.9
1.8108,11626.6
1.90963,11631.1
2.00851,11633.6
2.1071,11639.7
2.20598,11640.5
2.30477,11644.3
2.40341,11644.3
2.50224,11648
2.60117,11649.1
2.69981,11652
2.79869,11653.8
2.89747,11651.9
2.99612,11654.2
3.09499,11655.2
3.19383,11657.1
3.29242,11654.8
3.39126,11655.2
3.49018,11656.7
3.58878,11658.3
3.68766,11656.1
3.78644,11657.5
3.88513,11654.4
3.98396,11656.4
4.08279,11652.9
4.18139,11651
4.28032,11651.2
4.37915,11651.6
4.47784,11651.2
4.57662,11647.2
4.67545,11647.8
4.7741,11644
4.87302,11644.3
4.97185,11640.5
5.07041,11639.2
5.16928,11637.1
5.26816,11636.5
5.3668,11632.3
5.46564,11631.3
5.56451,11627.9
5.66311,11625.3
5.76199,11622.9
5.86077,11618.7
5.95942,11620.2
6.05825,11614.6
6.15713,11612.2
6.25577,11609.1
6.3546,11606.1
6.45353,11602
6.55213,11600.9
6.651,11594.1
6.74974,11593.5
6.84843,11588.6
6.94726,11584.3
7.04614,11581.9
7.14474,11577.5
7.24366,11572.3
7.34254,11567
7.44114,11564.2
7.53997,11558.8
7.6388,11557.2
7.73745,11550.1
7.83628,11547.5
7.93515,11539.3
8.03375,11534.4
8.13268,11531.4
8.23151,11528.3
8.33015,11522
8.42894,11515.9
8.52782,11510.6
8.62651,11504.2
8.72534,11498.9
8.82417,11490.9
8.92277,11485
9.02164,11480.4
9.12048,11475.5
9.21912,11465.8
9.31795,11461.7
9.41678,11452.6
9.51547,11444
9.6143,11435.7
9.71304,11428.3
9.81178,11421.6
9.91066,11412.9
10.0095,11404
10.1081,11395.2
10.207,11385
10.3059,11374.3
10.4045,11366.2
10.5033,11353.7
10.6021,11345
10.7008,11330
10.7997,11321.3
10.8985,11306.3
10.9972,11295.3
11.0961,11281.1
11.1949,11266.3
11.2935,11250.6
11.3923,11233.4
11.4912,11216.1
11.5898,11195.2
11.6887,11175.2
11.7875,11152.2
11.8862,11130
11.985,11106.7
12.0839,11081.1
12.1826,11045.4
12.2814,11016.8
12.3802,10979.8
12.4788,10945.1
12.5777,10901.7
12.6766,10862.1
12.7753,10816.7
12.8741,10768.3
12.973,10715
13.0716,10660.7
13.1705,10604.6
13.2693,10540.3
13.3679,10476.5
13.4668,10405.4
13.5656,10337
13.6643,10258.1
13.7632,10177.8
13.8621,10088.9
13.9607,10000.3
14.0596,9901
14.1583,9800.14
14.2571,9692.39
14.3559,9574.83
14.4546,9449.25
14.5535,9316.36
14.6523,9175.82
14.751,9017.75
14.8499,8851.45
14.9488,8666.16
15.0474,8469.05
15.1463,8241.69
15.2451,7991.22
15.3438,7706.79
15.4427,7383.12
15.5417,7004.33
15.6403,6540.83
15.7392,5939.35
15.8098,2755.46

File: Tensile_007.csv
Displacement (mm),Load (N)
0.000172601,-10.8755
0.000284123,-9.21167
0.000249374,-5.49054
0.00060677,0.101253
0.001082,8.60251
0.000389901,16.0288
0.00123053,19.4718
0.00122674,31.4595
0.00147977,52.9056
0.00133811,81.678
0.00158823,118.265
0.00148495,163.711
0.00199585,214.367
0.00302001,281.343
0.00230633,338.947
0.00393737,405.447
0.0032353,460.993
0.0048015,492.982
0.00349082,488.469
0.00426334,496.034
0.00413776,514.219
0.0044089,534.401
0.00522701,565.207
0.00463362,592.31
0.00504522,622.17
0.00544401,652.22
0.00635395,689.773
0.00653205,725.965
0.00611413,760.823
0.00666894,798.132
0.00673609,833.799
0.00781027,876.256
0.00811798,918.788
0.00786473,961.728
0.0084448,1010.41
0.00933961,1061.92
0.00922909,1110.81
0.00975713,1160.21
0.0104268,1212.49
0.0114381,1265.22
0.0105524,1321.25
0.0112777,1376
0.0114965,1436.83
0.0134085,1505.06
0.0138333,1561.66
0.014247,1631.89
0.0145519,1696.85
0.0148586,1761.91
0.0166509,1841.94
0.017254,1909.56
0.0173437,1979.99
0.0184099,2060.89
0.0192329,2140.85
0.0199215,2219.44
0.0201942,2299.41
0.0210909,2383.94
0.0221846,2472.29
0.0224998,2559.32
0.0232749,2647.09
0.0251437,2744.25
0.0260441,2831.53
0.0264746,2923.82
0.0280842,3027.63
0.028354,3122.85
0.0301972,3226.35
0.0310035,3332.12
0.0326768,3437.01
0.033864,3545.46
0.0349066,3684.68
0.0357215,3771.24
0.0378628,3887.76
0.0386038,4000.74
0.0404791,4115.95
0.0415507,4229.98
0.0436105,4351.96
0.0455157,4471.03
0.0473335,4597.71
0.0482064,4717.25
0.050288,4844.41
0.0522778,4971.91
0.0552716,5100.56
0.056927,5227.1
0.0590601,5356.48
0.0611599,5491.2
0.0634242,5615.66
0.0661877,5756.67
0.0688368,5882.96
0.0716104,6022.32
0.074885,6156.48
0.0780481,6288.02
0.0816391,6424.32
0.0851557,6555.47
0.0885031,6683.09
0.092453,6809.49
0.0969022,6937.83
0.100732,7059.92
0.106251,7185.99
0.111084,7304.22
0.116178,7421.66
0.122011,7536.39
0.128351,7647.76
0.134646,7756.25
0.142042,7862.32
0.149199,7958.75
0.157056,8057.84
0.165965,8146.87
0.173761,8231.09
0.184123,8317.28
0.1932,8384.97
0.204143,8465.17
0.215744,8529.15
0.227358,8592.36
0.239286,8642.48
0.252658,8702.67
0.26597,8744.27
0.280025,8789.51
0.294944,8825.18
0.309536,8862.78
0.325438,8891.39
0.34211,8922.22
0.357122,8872.25
0.418111,9202.77
0.4836,9259.7
0.550434,9306.17
0.618243,9345.02
0.685516,9377.03
0.754853,9409.85
0.823473,9430.4
0.893913,9456.64
0.964248,9475.84
1.03547,9497.17
1.10582,9513.16
1.17748,9530.75
1.2496,9544.47
1.35453,9557.43
1.46044,9568.03
1.56621,9580.92
1.67202,9594.21
1.77789,9601.83
1.88371,9609.99
1.98952,9620.32
2.09539,9625.85
2.2012,9632.76
2.30707,9637.02
2.41293,9642.6
2.5187,9648.63
2.62457,9651.43
2.73038,9656.23
2.8362,9663.12
2.94206,9663.93
3.04793,9665.86
3.1537,9674.84
3.25956,9672.55
3.36538,9681.12
3.47124,9680.25
3.57701,9681.76
3.68292,9686.78
3.7887,9684.58
3.89447,9684.41
4.00038,9687.23
4.10619,9684.65
4.21201,9688.24
4.31787,9689.91
4.42374,9688.89
4.52951,9688.39
4.63542,9692.45
4.74128,9692.94
4.84701,9693.92
4.95292,9694.36
5.05869,9690.48
5.16451,9691.43
5.27032,9692.3
5.37623,9687.43
5.48191,9686.21
5.58791,9686.75
5.69373,9687.13
5.7995,9683.03
5.90541,9682.05
6.01123,9680.03
6.11705,9682.09
6.22291,9679.29
6.32868,9680.36
6.43455,9678.17
6.54041,9676.17
6.64618,9675.41
6.75204,9668.19
6.85786,9662.07
6.96372,9666.54
7.06954,9658.54
7.17531,9654.45
7.28122,9656.07
7.38704,9653.78
7.49286,9648.63
7.59872,9644.67
7.70454,9640.94
7.81031,9638.84
7.91627,9639.09
8.02208,9631.66
8.12781,9631.24
8.23376,9627.6
8.33953,9621.9
8.44535,9617.79
8.55122,9612.58
8.65708,9609.4
8.76285,9604.39
8.86881,9600.27
8.97462,9594.03
9.08044,9587.9
9.1863,9584.05
9.29208,9579.8
9.3978,9574.71
9.50371,9567.36
9.60953,9565.28
9.71534,9562.38
9.82121,9552.32
9.92707,9547.45
10.0328,9539.85
10.1387,9535.78
10.2446,9532.92
10.3504,9524.35
10.4562,9514.01
10.5621,9509.86
10.6678,9499.76
10.7737,9498.21
10.8796,9488.66
10.9853,9480.61
11.0912,9471.15
11.1971,9465.7
11.3029,9456.64
11.4087,9448.11
11.5146,9440.76
11.6204,9429.29
11.7262,9422.14
11.8321,9407.95
11.9379,9399.47
12.0437,9388.58
12.1496,9373.23
12.2554,9363.71
12.3612,9354.09
12.4671,9336.64
12.5729,9326.05
12.6788,9313.14
12.7846,9296.73
12.8904,9282.99
12.9963,9262.34
13.1021,9243.52
13.2079,9223.15
13.3138,9201.89
13.4196,9177.18
13.5255,9156.53
13.6314,9125.76
13.7371,9100.14
13.843,9070.04
13.9488,9034.27
14.0546,9000.09
14.1605,8962
14.2663,8919.4
14.3721,8874.07
14.478,8824.05
14.5838,8775.02
14.6897,8718.32
14.7955,8659.95
14.9014,8599.09
15.0072,8530.26
15.113,8458.78
15.2189,8381.78
15.3247,8306.2
15.4306,8221.15
15.5365,8137.14
15.6423,8041.57
15.7482,7938.78
15.854,7833.39
15.9599,7721.84
16.0657,7597.12
16.1715,7469.68
16.2774,7326.125
16.3832,7174.7
16.4891,7013.87
16.595,6834.72
16.7008,6645.61
16.8067,6439.32
16.9126,6209.79
17.0184,5957.56
17.1243,5674.87
17.2301,5352
17.336,4976.15
17.4419,4532.85
17.5316,-470.77

File: Tensile_008.csv
Displacement (mm),Load (N)
0.000198726,13.0388
0.000355082,13.2379
0.00042768,15.3913
0.000343589,20.3601
0.000592948,29.1942
0.000414678,43.003
0.000490587,62.6575
0.000786751,89.9911
0.00108917,123.432
0.00113661,158.419
0.00136093,204.171
0.00153861,254.683
0.00183766,306.631
0.00212287,357.094
0.00264791,419.261
0.00292945,486.167
0.00345046,552.019
0.00374803,628.192
0.00414674,703.337
0.00466907,784.896
0.00530564,870.852
0.00575135,962.609
0.00627437,1059.03
0.00704021,1157.62
0.00764779,1256.83
0.00837585,1365.93
0.0086972,1466.87
0.00921599,1571.86
0.0102458,1681.05
0.0106497,1775.28
0.0113099,1877.64
0.0118683,1991.76
0.0127748,2106.87
0.0133562,2223.57
0.014243,2339.5
0.0148962,2456.27
0.0156622,2577.59
0.0164984,2699.31
0.0172741,2824.09
0.0180203,2949.91
0.0190101,3078.41
0.0196262,3210.4
0.0204576,3341.75
0.0215876,3471.53
0.0224336,3601.96
0.0232083,3737.28
0.0239955,3877.22
0.0248851,4010.87
0.025851,4142.48
0.0266403,4274.33
0.0273684,4394.27
0.0279777,4522.08
0.0287671,4641.69
0.0297446,4747.64
0.0298878,4845.13
0.0304686,4948.7
0.0311877,5046.69
0.0318738,5149.48
0.0326134,5258.25
0.0332661,5363.67
0.0336707,5469.56
0.0342915,5577.91
0.0349514,5690.38
0.0357977,5802.19
0.0367539,5916.79
0.0374548,6023.97
0.0379527,6118.7
0.0386348,6198.83
0.0394364,6270.49
0.0398296,6349.5
0.0404046,6427.37
0.0409311,6504.53
0.0414855,6582.67
0.0423321,6668.32
0.0427906,6748.69
0.0438196,6843.44
0.0441743,6926.65
0.0448872,7016.46
0.0456458,7105.43
0.0462519,7196.4
0.047201,7287.89
0.048099,7382.8
0.0485562,7475.91
0.049329,7573.09
0.0502908,7672.08
0.05115,7771.55
0.0517531,7873.54
0.052782,7975.72
0.0541318,8080.61
0.054817,8184.47
0.0557102,8289.45
0.0569189,8398.82
0.0578006,8508.17
0.0589815,8617.01
0.0600146,8731.36
0.0609688,8846.98
0.0623966,8960.41
0.0635794,9080.51
0.0649506,9201.71
0.0663394,9320.87
0.0676838,9446.65
0.0690538,9571.16
0.0704138,9694.13
0.0719266,9821.26
0.0735051,9949.39
0.075146,10078.3
0.0770848,10205.8
0.0788937,10337.7
0.0809846,10471.5
0.0826934,10604
0.0848968,10737.2
0.0872261,10869.8
0.0893519,11004.5
0.0917586,11145
0.0942254,11281.9
0.0972544,11417.4
0.0999743,11556.9
0.102899,11691.1
0.10625,11827.9
0.110033,11967.6
0.113505,12098.2
0.117513,12229.4
0.122073,12361.9
0.126977,12495.1
0.131969,12624.6
0.13757,12745.8
0.143929,12863.6
0.150592,12982.1
0.158245,13091.6
0.176227,13446
0.209898,13685
0.24925,13857.4
0.293682,13978.1
0.343306,14066.7
0.396227,14129.2
0.451632,14176.7
0.508832,14212.9
0.567978,14243.5
0.628865,14270.1
0.690419,14295.6
0.752521,14314.4
0.816277,14336.9
0.880035,14351.2
0.94442,14368.2
1.00947,14380.1
1.07502,14390.5
1.14105,14403.9
1.20723,14414.3
1.28485,14423.1
1.38344,14430.7
1.48228,14439.7
1.58111,14445.7
1.6798,14452.2
1.77868,14455.8
1.87751,14462.6
1.97615,14467.3
2.07498,14473.3
2.17381,14476
2.27241,14481.9
2.37124,14483.2
2.47012,14484.9
2.56881,14486.9
2.6676,14488.5
2.76652,14494.1
2.86512,14494.6
2.964,14497.2
3.06278,14494.7
3.16142,14497.4
3.26035,14496.5
3.35913,14499.6
3.45778,14498.4
3.55656,14500.9
3.65544,14501
3.75408,14501.2
3.85301,14500.1
3.95179,14499.6
4.05044,14498.2
4.14932,14500.1
4.24815,14499
4.34675,14494.9
4.44558,14497.9
4.54445,14494.3
4.6431,14495
4.74193,14490.7
4.84076,14492.2
4.93945,14488.5
5.03833,14489.4
5.13711,14486.6
5.23567,14483.7
5.33459,14480.9
5.43347,14479.5
5.53216,14477.5
5.63099,14474.6
5.72982,14471.5
5.82847,14470.8
5.9273,14468.3
6.02613,14464.6
6.12477,14464.2
6.2236,14457.9
6.32248,14457
6.42113,14452.7
6.51996,14451.6
6.61883,14449.1
6.71743,14445.6
6.81631,14441.2
6.9151,14437.3
7.01374,14434
7.11262,14429.9
7.2115,14427.5
7.31009,14422.1
7.40892,14419.7
7.5078,14415
7.60645,14412.3
7.70532,14405.4
7.80416,14403.2
7.90285,14394.9
8.00163,14392.4
8.10046,14384.2
8.19911,14382.5
8.29798,14378.5
8.39691,14373.7
8.49555,14366.6
8.59438,14359.9
8.69322,14354.9
8.79181,14349.3
8.89064,14342.8
8.98943,14338.1
9.08803,14333.4
9.187,14326.7
9.28583,14320.6
9.38452,14313.2
9.48335,14306.1
9.58223,14297.6
9.68083,14292.5
9.77966,14284.2
9.87844,14276.9
9.97713,14269.2
10.076,14261.9
10.1749,14254
10.2735,14244.7
10.3723,14235.8
10.4712,14227.4
10.5698,14221.1
10.6687,14206.8
10.7675,14196.3
10.8661,14183.3
10.965,14173.4
11.0639,14160.9
11.1625,14149.1
11.2614,14137.3
11.3602,14123.1
11.4589,14105.7
11.5577,14091.3
11.6566,14075.5
11.7552,14055.1
11.8541,14037.1
11.9529,14016.9
12.0515,13997.9
12.1504,13972.7
12.2493,13947.7
12.3479,13921.5
12.4467,13892.3
12.5455,13861.9
12.6442,13829.7
12.7431,13793.4
12.8419,13757.6
12.9405,13715.6
13.0394,13670.2
13.1383,13627.2
13.2369,13575.9
13.3358,13525.8
13.4346,13467.5
13.5332,13410.8
13.6321,13346
13.7309,13279.8
13.8296,13211.8
13.9285,13139.1
14.0274,13060.2
14.126,12976.9
14.2249,12892
14.3237,12802.4
14.4223,12706.2
14.5212,12599.5
14.62,12492.8
14.7187,12377.8
14.8176,12257
14.9165,12124.1
15.0151,11987.3
15.114,11835.5
15.2129,11675.8
15.3116,11499.3
15.4104,11310.3
15.5093,11105
15.6079,10880
15.7069,10627.3
15.8057,10341.2
15.9044,10016.4
16.0034,9627.45
16.0745,4981.01

File: Tensile_test_1.csv
Displacement (mm),Load (N)
0.00029101,0.72046
9.74677e-05,2.2188
0.000135365,8.03528
0.000214068,17.4521
1.45733e-05,29.3216
0.000411408,44.4046
0.0004202,64.713
0.000411733,84.1457
0.000733038,101.7
0.00051398,117.187
0.000554125,131.261
0.000720518,149.581
0.000836019,167.349
0.000852373,184.624
0.000778944,202.675
0.000654614,220.484
0.000821277,237.643
0.000995194,252.486
0.000601607,269.827
0.000953842,288.657
0.000966534,306.943
0.00121726,330.685
0.00122478,356.237
0.00147431,383.476
0.00142818,410.741
0.00164082,440.799
0.00170287,473.667
0.00170739,509.658
0.00186669,547.906
0.00219076,591.029
0.00216678,637.63
0.00269759,686.203
0.00261901,740.026
0.00295821,793.199
0.00277389,851.269
0.00325629,910.878
0.0034381,975.419
0.00347251,1045.49
0.0037041,1110.45
0.00399441,1178.73
0.0044001,1257.16
0.00450092,1330.49
0.00452011,1412.44
0.00499154,1491.49
0.00504637,1579.92
0.00536315,1668.61
0.00565595,1759.31
0.0063138,1857.19
0.0065302,1955.72
0.00679909,2057.44
0.00737992,2160.38
0.00774949,2266.41
0.0080069,2374.56
0.00857224,2483.61
0.00897616,2598.11
0.00924768,2712.625
0.00999616,2833.11
0.0106169,2951.35
0.0108572,3067.75
0.011374,3188.96
0.0118069,3311.51
0.0122489,3420.72
0.0124162,3533.9
0.0126369,3636.34
0.0131472,3758.2
0.013624,3877.27
0.0140068,3991.92
0.014441,4110.95
0.015011,4233.04
0.0156775,4353.69
0.0161985,4476.69
0.0169336,4601
0.0176145,4726.96
0.0181957,4855.3
0.0187727,4980.57
0.0195577,5105.88
0.0201542,5234.88
0.0210163,5370.21
0.0218682,5495.81
0.0223214,5630.79
0.0230302,5761.12
0.0240445,5899.57
0.0248969,6033.17
0.0256222,6174.92
0.0266735,6317.17
0.0275034,6457.16
0.0284369,6599.4
0.0295207,6746.93
0.0304758,6893.64
0.0315329,7040.98
0.0326732,7189.89
0.0338898,7345.08
0.0349204,7498.55
0.0361737,7651.2
0.0373143,7810.22
0.0386303,7975.06
0.0399797,8136.04
0.0412828,8302.49
0.0427626,8466.78
0.0444361,8632.38
0.04589,8807.67
0.0473885,8983.3
0.0489308,9156.95
0.0508192,9330.21
0.052839,9506.2
0.0547301,9685.63
0.0568791,9863.11
0.0591294,10046.2
0.0612091,10228.3
0.0634372,10411.7
0.0662116,10592.3
0.068558,10777.8
0.0712582,10962.1
0.07481,11151.4
0.0778119,11335.2
0.0814764,11517.7
0.0844414,11703.4
0.0884436,11883.4
0.0927927,12059.7
0.107609,12673.1
0.12491,13109.1
0.1456,13492.9
0.171376,13810.3
0.205008,14061.6
0.246412,14241.6
0.295916,14373.2
0.35159,14462.3
0.411302,14526.3
0.47455,14579
0.539737,14620
0.605365,14653.1
0.671315,14686.7
0.737533,14711.5
0.803832,14736
0.870756,14757.1
0.937755,14772.9
1.00485,14793.9
1.0728,14809.4
1.14123,14820.4
1.20988,14832.8
1.27957,14846.9
1.34916,14853.6
1.41906,14864.9
1.4888,14876.2
1.55954,14882.9
1.63067,14894.5
1.70133,14898.2
1.77276,14906.9
1.84478,14914.4
1.91668,14918.9
1.98849,14923.4
2.06121,14929.9
2.13425,14930.7
2.20705,14935.5
2.28046,14939.9
2.35401,14939.8
2.428,14943.7
2.50168,14945.7
2.57595,14948.2
2.65053,14951.9
2.72498,14955.3
2.7997,14954
2.87538,14960.5
2.95076,14959.7
3.02628,14961.9
3.10192,14963.1
3.17806,14962.1
3.25447,14963
3.33105,14963.6
3.40801,14964.2
3.48486,14963.6
3.56153,14961.7
3.63905,14963
3.7167,14961.7
3.79451,14960.6
3.8728,14961.5
3.95087,14962
4.03005,14958.9
4.10828,14959.7
4.18702,14958.7
4.26604,14957.8
4.34552,14957.4
4.42462,14954.6
4.50452,14951.3
4.58424,14951.7
4.66408,14950.7
4.74423,14942.7
4.8245,14944.1
4.90567,14942.4
4.98653,14939.1
5.06767,14937.6
5.14995,14936
5.23203,14931.2
5.31373,14930
5.39602,14930
5.47845,14924.4
5.56127,14923.8
5.64446,14919.7
5.72828,14917.4
5.81175,14911.4
5.89602,14908.5
5.9805,14905.6
6.06521,14899.3
6.15048,14896.3
6.23536,14893.1
6.32128,14888.7
6.4072,14884.6
6.49315,14881.2
6.57905,14876.4
6.6664,14875.2
6.75387,14868.4
6.84091,14863.3
6.92865,14859.9
7.01736,14855.6
7.10595,14845.3
7.19433,14844.7
7.28418,14837.1
7.37403,14829.6
7.46397,14828.7
7.55454,14820.7
7.64574,14814.2
7.73685,14812.1
7.8287,14802.3
7.9211,14796.2
8.01443,14792.3
8.10757,14784.3
8.20158,14778.9
8.29634,14772.2
8.39186,14761.6
8.48689,14754.1
8.583,14747
8.67956,14736.9
8.77627,14729.1
8.87301,14721
8.97091,14713.5
9.06927,14702.7
9.16774,14691.5
9.26638,14685.9
9.36631,14673.7
9.46668,14660.6
9.56718,14650.5
9.66798,14637.9
9.77002,14625.4
9.87152,14612.4
9.97386,14597.3
10.0766,14579.1
10.1796,14566.6
10.2826,14547.9
10.3867,14530.1
10.4913,14514
10.596,14490.4
10.7006,14468.9
10.8065,14445.1
10.9125,14416.3
11.0184,14389
11.1246,14358.1
11.2311,14324
11.3376,14285.8
11.4439,14247.6
11.5507,14204.5
11.6576,14160.6
11.7643,14106.3
11.8709,14056.2
11.9784,13999.2
12.0858,13937.2
12.1934,13872.4
12.3012,13806.4
12.4096,13730.8
12.5169,13654.3
12.6244,13570.6
12.7324,13481.6
12.841,13390.6
12.9488,13288.7
13.0565,13182.9
13.165,13071.6
13.2731,12946.5
13.3813,12820.5
13.4902,12683.7
13.5994,12534.1
13.7085,12374.1
13.8181,12203.6
13.9283,12011.6
14.0385,11805.4
14.1486,11575.2
14.2598,11318.6
14.3713,11030.2
14.4824,10704.7
14.5914,10331
14.7036,9895.62
14.8184,9365.58
18.0706,-116.979