Folder: MaRCN_Tensile_Ontology/data/PrimaryData/Unknown_Resin (part 2)

File: Tensile_test_7.csv
Displacement,Load
-1.13191e-16,0.0689161
7.80974e-06,0.88784
1.63247e-05,1.45422
2.48212e-05,1.8116
3.32984e-05,2.35718
4.18167e-05,2.80771
5.03183e-05,3.44099
5.88072e-05,3.83225
6.73016e-05,4.30495
7.58188e-05,4.93734
8.42876e-05,5.45778
9.28104e-05,6.11244
0.000101293,6.76784
0.000109784,7.30201
0.000118302,7.80438
0.000126802,8.433
0.000135296,8.87829
0.000143809,9.49774
0.000152259,10.0862
0.000160789,10.5879
0.000169306,11.2971
0.000177781,12.2277
0.000186294,12.9733
0.000194781,13.7789
0.00020327,14.749
0.000211774,15.6789
0.000220258,16.4663
0.000228777,17.5553
0.000237275,18.4458
0.000245784,19.432
0.000254262,20.3395
0.00026276,21.4901
0.000271244,22.4701
0.000279764,23.4598
0.000288281,24.3166
0.000296749,25.4597
0.000305265,26.3603
0.00031377,27.281
0.000322242,28.552
0.000330756,29.644
0.000339271,30.5809
0.000347722,31.7049
0.000356255,32.7634
0.000364737,33.8205
0.000373244,34.8587
0.00038175,36.1499
0.000390243,37.2497
0.000398721,38.2886
0.000407243,39.4428
0.000415745,40.7701
0.000424239,41.7491
0.000432733,42.6523
0.000441214,43.3236
0.000449746,43.9536
0.000458236,44.6783
0.000466699,45.6451
0.000475218,46.4598
0.000483715,47.3668
0.000492202,48.1976
0.000500736,48.8994
0.000509211,49.7088
0.000517711,50.4495
0.000526211,51.3298
0.000534689,52.2254
0.000543194,53.015
0.00055169,53.8851
0.000560188,54.7617
0.000568702,55.487
0.000577195,56.3973
0.000585695,57.4564
0.000594192,58.3073
0.000602683,59.3849
0.000611168,60.34
0.000619689,61.3165
0.00062821,62.3403
0.000636684,63.4359
0.000645183,64.5546
0.000653656,66.0599
0.000662178,67.2635
0.000670651,68.4085
0.000679159,69.4978
0.000687681,70.6671
0.000696147,71.7751
0.000704649,72.9876
0.000713169,74.1456
0.000721655,75.221
0.00073016,76.2524
0.000738656,77.4562
0.000747134,78.552
0.000755647,79.6294
0.000764154,80.7602
0.000772635,81.802
0.000781145,83.0464
0.000789645,83.871
0.00079815,84.8942
0.000806658,85.7961
0.000815129,86.8918
0.000823622,87.7833
0.000832142,88.6111
0.000840621,89.5954
0.00084915,90.2312
0.000857637,91.1228
0.000866091,91.7974
0.000874622,92.6539
0.000883129,93.3995
0.000891621,93.8984
0.000900119,94.6404
0.000908627,95.161
0.000917119,95.6306
0.000925601,96.1557
0.00093413,96.6542
0.000942618,97.0357
0.000951101,97.4942
0.000959593,97.8555
0.000968099,98.1309
0.000976624,98.3292
0.000985105,98.7297
0.00099361,99.0472
0.00100212,99.3122
0.00101058,99.429
0.00101908,99.7156
0.00102759,99.7544
0.00103607,99.8858
0.00104458,100.053
0.00105307,100.082
0.00106157,100.079
0.00107007,100.191
0.00107857,100.277
0.0010871,100.282
0.00109558,100.21
0.00110407,100.268
0.0011126,100.177
0.00112108,100.202
0.00112956,100.152
0.00113806,100.069
0.00114656,99.9449
0.00115504,99.9097
0.00116356,99.8612
0.00117206,99.6842
0.00118053,99.6306
0.00118905,99.6041
0.00119755,99.4566
0.00120604,99.3049
0.00121455,99.2217
0.00122303,99.1606
0.00123152,99.0747
0.00124007,98.9755
0.00124853,98.8195
0.00125703,98.7401
0.00126554,98.6092
0.00127405,98.3085
0.00128251,98.2619
0.00129105,98.2245
0.00129952,98.2472
0.00130804,98.1381
0.00131651,98.0364
0.001325,98.0307
0.00133351,98.0695
0.00134199,98.0642
0.00135052,98.1382
0.00135901,98.2756
0.00136751,98.3515
0.00137603,98.4071
0.0013845,98.3847
0.00139301,98.1922
0.0014015,98.0899
0.00141,97.961
0.00141851,97.789
0.00142698,97.8529
0.0014355,97.6115
0.001444,97.4828
0.00145249,97.3591
0.00146098,97.2677
0.00146949,97.1936
0.00147797,97.1164
0.00148645,97.1574
0.00149496,96.9377
0.00150348,96.8106
0.00151197,96.8325
0.00152047,96.6616
0.00152896,96.7763
0.00153746,96.755
0.00154597,96.9571
0.00155448,97.0528
0.00156299,96.9252
0.00157149,97.0062
0.00157996,97.0258
0.00158844,97.0593
0.00159699,97.0449
0.00160547,97.0833
0.00161393,97.2006
0.00162247,97.1454
0.00163093,97.2653
0.00163946,97.2902
0.00164794,97.409
0.00165646,97.5321
0.00166495,97.476
0.00167344,97.7351
0.00168191,97.7419
0.00169046,97.9088
0.00169892,97.938
0.00170744,98.0692
0.00171595,97.9998
0.0017244,98.1466
0.00173295,98.1378
0.00174146,98.2353
0.00174991,98.1106
0.00175845,98.2356
0.0017669,98.2945
0.0017754,98.385
0.00178393,98.5266
0.00179242,98.5253
0.00180091,98.6199
0.00180943,98.6756
0.00181791,98.8745
0.0018264,98.8994
0.00183491,99.0425
0.00184338,99.05
0.00185187,99.0461
0.00186044,99.1795
0.00186889,99.2536
0.00187741,99.362
0.00188592,99.5262
0.0018944,99.4816
0.0019029,99.5895
0.00191136,99.6681
0.00191987,99.6929
0.00192831,99.8659
0.00193689,99.9222
0.00194536,99.9928
0.0019539,100.099
0.00196237,100.233
0.00197088,100.283
0.00197936,100.379
0.00198788,100.637
0.00199637,100.581
0.00200489,100.796
0.00201338,100.771
0.00202187,100.867
0.00203041,100.821
0.00203884,100.68
0.00204738,100.899
0.00205587,100.998
0.00206435,101.139
0.00207287,101.326
0.00208134,101.409
0.00208986,101.48
0.00209834,101.602
0.00210682,101.601
0.00211536,101.641
0.00212383,101.845
0.00213233,101.886
0.00214082,101.978
0.00214932,102.095
0.00215784,102.138
0.00216632,102.205
0.00217483,102.258
0.0021833,102.331
0.00219181,102.401
0.00220031,102.383
0.00220882,102.535
0.00221727,102.53
0.00222582,102.379
0.00223431,102.46
0.00224278,102.436
0.00225127,102.398
0.0022598,102.457
0.00226832,102.66
0.0022768,102.69
0.0022853,102.671
0.00229381,102.721
0.00230231,102.813
0.00231081,102.812
0.00231929,102.949
0.00232778,102.969
0.00233631,103.07
0.00234481,103.044
0.00235327,103.133
0.00236181,103.235
0.00237027,103.364
0.00237879,103.297
0.00238726,103.282
0.00239575,103.465
0.00240429,103.556
0.00241277,103.37
0.00242122,-0.33482
0.00242977,-0.364925
0.00243826,-0.306514
0.00243921,-0.422669