Folder: MaRCN_Tensile_Ontology/data/PrimaryData/Unknown_Resin

Note: README.md
# MaRCN_Tensile_Ontology
 Exercise on FAIR Tensile data under RDF files

File: Tensile_test_3.csv
Displacement,Load
-5.0307e-17,-0.206812
1.02451e-05,3.43281
2.17737e-05,6.72184
3.3263e-05,9.45734
4.47722e-05,11.8087
5.62732e-05,13.3551
6.77475e-05,14.2676
7.92373e-05,15.8903
9.07713e-05,18.3989
0.000102262,19.652
0.000113767,20.2377
0.000125236,20.2576
0.000136764,20.4027
0.000148235,20.4129
0.000159749,20.4478
0.000171242,20.4344
0.000182751,20.5072
0.000194224,20.5922
0.00020574,20.9782
0.000217235,21.4855
0.000228711,22.4583
0.000240254,23.6585
0.000251734,24.2274
0.000263213,24.5256
0.000274732,24.901
0.000286217,25.2327
0.0002977,25.4247
0.000309195,25.6222
0.000320695,25.8084
0.000332217,25.9015
0.000343678,26.151
0.000355208,26.2571
0.000366689,26.3856
0.000378213,26.3988
0.000389679,26.3914
0.000401198,26.364
0.000412667,26.3968
0.000424192,26.4142
0.00043568,26.3938
0.000447185,26.4252
0.000458686,26.4036
0.000470135,26.3776
0.000481635,26.3437
0.000493113,26.4512
0.000504621,26.317
0.00051611,26.4357
0.000527603,26.3926
0.000539103,26.3334
0.000550596,26.3692
0.000562093,26.3518
0.000573606,26.3525
0.000585093,26.309
0.000596603,26.4942
0.000608082,26.4101
0.000619589,26.2877
0.000631064,26.4179
0.000642591,26.3942
0.000654077,26.4331
0.00066559,26.3793
0.000677058,26.4387
0.000688582,26.3541
0.000700054,26.5135
0.000711587,26.4529
0.000723096,26.4778
0.000734588,26.4447
0.000746049,26.3639
0.000757573,26.4193
0.000769109,26.3615
0.000780584,26.4512
0.000792059,26.382
0.000803598,26.3912
0.000815103,26.4057
0.000826588,26.4127
0.000838091,26.3779
0.000849592,26.3198
0.000861084,26.4116
0.000872578,26.4267
0.000884109,26.3789
0.000895588,26.5792
0.000907084,26.3464
0.000918566,26.4625
0.000930075,26.4634
0.000941569,26.4429
0.00095307,26.4507
0.000964575,26.4614
0.000976068,26.4476
0.000987551,26.4145
0.000999074,26.3501
0.00101057,26.4153
0.0010221,26.3489
0.0010336,26.3959
0.00104514,26.4611
0.00105662,26.3765
0.00106813,26.4113
0.0010796,26.3871
0.00109112,26.4152
0.00110259,26.4311
0.00111411,26.5329
0.00112558,26.4273
0.00113711,26.3311
0.00114859,26.2895
0.00116008,26.4274
0.00117155,26.406
0.00118309,26.3074
0.00119458,26.4401
0.00120608,26.3589
0.00121758,26.3738
0.00122907,26.2915
0.00124057,26.4161
0.00125205,26.5194
0.00126352,26.3656
0.00127504,26.3579
0.00128657,26.4447
0.00129807,26.3963
0.00130958,26.3802
0.00132107,26.4054
0.00133251,26.385
0.00134403,26.5468
0.00135551,26.4363
0.00136706,26.4578
0.00137857,26.4638
0.00138998,26.4084
0.00140149,26.4553
0.00141298,26.427
0.00142448,26.4217
0.00143597,26.3857
0.00144752,26.422
0.00145897,26.4578
0.00147048,26.3841
0.00148196,26.4229
0.00149346,26.4503
0.00150495,26.4509
0.00151646,26.5042
0.00152795,26.4958
0.00153945,26.5282
0.00155094,26.4788
0.00156246,26.425
0.00157395,26.5094
0.00158543,26.5756
0.00159694,26.5407
0.00160843,26.6133
0.00161993,26.7129
0.00163142,27.0345
0.00164293,27.2725
0.00165445,27.6219
0.00166599,27.9187
0.0016774,28.4039
0.00168895,28.7613
0.00170041,29.3145
0.00171196,29.6382
0.00172344,30.2251
0.00173497,30.8762
0.00174645,31.3387
0.00175797,31.985
0.00176946,32.6749
0.00178094,33.184
0.00179245,33.7131
0.00180396,34.2664
0.00181544,34.7773
0.00182695,35.3792
0.00183843,35.9945
0.00184994,36.6134
0.00186143,37.1607
0.00187294,37.6829
0.00188444,38.3441
0.00189592,39.0824
0.00190744,40.066
0.00191892,41.0219
0.00193042,42.1362
0.00194194,43.2051
0.00195343,44.3173
0.0019649,45.5324
0.00197644,46.8827
0.00198791,48.1073
0.00199944,49.3538
0.00201089,50.5566
0.00202241,51.8427
0.00203389,53.1423
0.00204539,54.479
0.00205687,55.7701
0.00206841,57.0992
0.00207988,58.2964
0.0020914,59.5808
0.00210289,60.8773
0.00211438,62.3351
0.00212587,63.6162
0.00213739,64.8781
0.00214888,66.2436
0.00216036,67.5988
0.00217186,68.7947
0.00218339,70.1273
0.00219484,71.1151
0.00220637,72.1299
0.00221784,73.129
0.00222938,74.1781
0.00224086,75.2095
0.00225237,76.1041
0.00226386,76.8312
0.00227528,77.929
0.00228684,79.075
0.00229829,80.053
0.00230982,80.8112
0.00232131,81.7266
0.00233279,82.7389
0.00234429,83.8886
0.00235578,84.9088
0.00236726,86.1885
0.00237877,87.2664
0.00239028,89.1169
0.00240177,90.3891
0.00241327,91.8325
0.00242477,92.864
0.00243626,93.9564
0.00244776,95.3178
0.00245925,96.5013
0.00247077,97.8183
0.00248225,98.8931
0.00249375,99.9087
0.00250523,101.004
0.00251674,102.211
0.00252823,103.116
0.00253973,103.788
0.00255123,104.793
0.00256275,106.049
0.00257424,106.982
0.00258574,108.04
0.00259722,109.01
0.00260876,110.073
0.00262025,110.961
0.00263174,111.778
0.00264324,112.704
0.00265478,113.669
0.00266628,114.387
0.00267775,115.189
0.00268928,115.773
0.00270076,116.377
0.00271228,116.997
0.00272374,117.613
0.00273528,118.095
0.00274675,118.462
0.00275825,118.758
0.00276974,119.283
0.00278124,119.631
0.00279273,120.06
0.00280424,120.318
0.00281573,120.351
0.00282723,120.745
0.00283872,120.834
0.00285022,120.856
0.00286175,120.881
0.00287322,120.697
0.00288472,120.828
0.00289623,120.627
0.00290773,120.773
0.00291919,120.634
0.0029307,120.612
0.00294219,120.509
0.00295372,120.368
0.0029652,120.207
0.00297668,120.072
0.00298821,119.888
0.00299972,119.624
0.00301118,119.507
0.00302271,119.26
0.00303418,119.153
0.00304571,118.851
0.00305719,118.646
0.00306868,118.479
0.00308015,118.245
0.0030917,118.093
0.00310316,117.919
0.00311469,117.845
0.00312615,117.801
0.00313769,117.694
0.00314918,117.394
0.00316065,117.308
0.00317214,117.175
0.00318365,117.117
0.00319517,116.828
0.00320666,116.556
0.00321815,116.303
0.00322964,116.143
0.00324111,116.007
0.00325259,115.558
0.00326409,115.278
0.00327559,115.13
0.00328707,114.657
0.00329858,114.305
0.00331007,113.754
0.00332157,113.266
0.00333309,112.444
0.00334457,26.5447
0.00335606,26.5469
0.00336456,26.547

File: Tensile_test_4.csv
Displacement,Load
-1.44416e-16,-0.0693721
7.26487e-06,0.184988
1.48077e-05,0.271682
2.23326e-05,0.620971
2.98569e-05,0.715113
3.73382e-05,0.861574
4.48306e-05,1.17344
5.23371e-05,1.35193
5.98351e-05,1.55018
6.73446e-05,1.83858
7.48293e-05,2.165
8.23216e-05,2.36106
8.98293e-05,2.74812
9.73441e-05,3.08079
0.000104828,3.40666
0.000112328,3.87343
0.000119823,4.28556
0.000127342,4.70757
0.000134838,5.07053
0.000142344,5.54266
0.000149766,5.97862
0.000157326,6.50378
0.000164844,6.88282
0.00017232,7.44122
0.00017982,7.9404
0.000187275,8.5357
0.000194802,8.99737
0.000202309,9.61403
0.000209844,10.1214
0.000217292,10.7643
0.000224731,11.3159
0.000232286,11.9545
0.00023974,12.57
0.000247216,13.2521
0.000254721,13.9132
0.000262227,14.5469
0.000269724,15.3086
0.00027725,15.9821
0.000284747,16.6961
0.000292212,17.37
0.00029972,18.0318
0.00030723,18.745
0.000314721,19.4527
0.000322219,20.2355
0.000329717,21.0124
0.000337231,21.9191
0.000344717,22.727
0.000352243,23.4762
0.000359711,24.2307
0.000367221,25.13
0.000374706,25.8135
0.000382203,26.6728
0.000389689,27.444
0.000397187,28.2142
0.000404688,29.1467
0.000412182,30.0926
0.000419722,30.9662
0.000427205,31.5886
0.000434683,32.2841
0.000442203,33.0691
0.000449718,33.9659
0.00045719,34.663
0.00046468,35.3977
0.000472202,36.3747
0.000479708,37.1885
0.000487206,37.952
0.000494676,38.8475
0.000502225,39.3927
0.000509734,40.2864
0.000517217,40.9599
0.000524747,41.6329
0.000532154,42.2873
0.000539748,42.7913
0.000547247,43.4609
0.00055472,44.0507
0.000562204,44.6665
0.000569708,45.3022
0.000577222,45.9422
0.00058473,46.6765
0.000592228,47.4249
0.000599726,48.1944
0.000607224,49.0886
0.000614742,49.6761
0.000622223,50.4015
0.000629715,51.4749
0.000637195,52.5788
0.000644718,53.5572
0.000652215,54.3042
0.000659706,55.4142
0.000667207,56.1955
0.000674697,56.9883
0.000682202,57.7713
0.000689697,58.5067
0.000697201,59.4332
0.000704689,60.3641
0.000712212,61.2957
0.000719697,62.2181
0.000727194,62.9467
0.000734684,63.8898
0.000742186,64.5503
0.000749696,65.3355
0.000757196,66.1564
0.000764682,66.8898
0.000772167,67.7201
0.000779694,68.4053
0.000787204,69.1899
0.000794668,70.0147
0.000802171,70.9172
0.000809703,71.8381
0.00081718,72.7871
0.000824671,73.723
0.000832165,74.53
0.000839654,75.3688
0.00084717,76.165
0.000854682,76.9899
0.00086215,77.9211
0.000869633,78.8226
0.000877171,79.8745
0.000884682,80.7053
0.000892164,81.544
0.000899664,82.443
0.000907144,83.255
0.000914663,84.1448
0.000922166,84.9221
0.000929645,85.7719
0.000937149,86.4268
0.000944659,87.1384
0.000952163,87.9393
0.000959646,88.5865
0.000967132,89.1655
0.000974668,89.8734
0.000982157,90.4759
0.000989629,90.9293
0.000997158,91.5941
0.00100464,92.0907
0.0010121,92.7077
0.00101961,93.0459
0.00102715,93.392
0.00103461,93.9469
0.00104215,94.427
0.00104963,94.855
0.00105713,95.0656
0.0010646,95.494
0.00107215,95.8865
0.00107961,96.1912
0.00108707,96.5016
0.00109464,96.7429
0.00110209,97.0145
0.0011096,97.2517
0.00111709,97.4355
0.0011246,97.5448
0.00113211,97.6852
0.00113962,97.771
0.00114711,97.8753
0.00115454,97.9842
0.00116205,98.0185
0.00116958,98.028
0.00117707,98.0416
0.00118454,97.9125
0.00119205,97.9746
0.00119955,97.9469
0.00120704,97.9656
0.00121455,97.8463
0.00122201,97.7572
0.00122954,97.7062
0.00123705,97.5571
0.00124453,97.5151
0.00125202,97.5617
0.00125952,97.4178
0.00126701,97.4741
0.00127455,97.3213
0.00128202,97.1964
0.00128951,97.0522
0.00129699,96.9223
0.00130451,96.9823
0.00131203,96.8658
0.0013195,96.8101
0.001327,96.7107
0.0013345,96.5544
0.00134201,96.4827
0.00134953,96.3129
0.001357,96.1569
0.00136449,95.9735
0.00137201,95.8029
0.00137951,95.6381
0.00138701,95.4368
0.00139448,95.3174
0.00140201,95.1477
0.00140948,94.9261
0.00141701,94.8674
0.00142449,94.708
0.00143198,94.5001
0.00143953,94.2665
0.00144707,94.1733
0.0014545,94.082
0.00146201,93.9932
0.0014695,93.8842
0.00147704,93.9339
0.00148454,93.6516
0.00149201,93.7067
0.00149949,93.6687
0.00150704,93.5551
0.00151454,93.5358
0.00152205,93.2823
0.00152954,93.3631
0.00153701,93.0968
0.00154455,93.0782
0.00155204,92.974
0.00155955,92.9332
0.00156705,92.8434
0.00157455,92.8116
0.00158203,92.807
0.00158952,92.7109
0.00159705,92.7386
0.00160453,92.7845
0.00161204,92.7296
0.00161953,92.7018
0.00162702,92.6194
0.00163453,92.581
0.00164203,92.6085
0.00164951,92.4996
0.001657,92.6275
0.00166452,92.5281
0.00167202,92.3989
0.00167952,92.5071
0.00168702,92.3065
0.0016945,92.4434
0.00170198,92.4372
0.00170949,92.399
0.00171701,92.2888
0.00172451,92.3467
0.001732,92.3508
0.00173951,92.2988
0.00174701,92.2296
0.00175451,92.3553
0.001762,92.3642
0.00176948,92.3734
0.00177699,92.3618
0.00178449,92.364
0.00179199,92.3963
0.00179949,92.3952
0.00180699,92.5588
0.00181449,92.5707
0.00182199,92.6577
0.00182949,92.641
0.00183697,92.7408
0.00184449,92.6058
0.00185198,92.6617
0.00185949,92.7234
0.00186695,92.8069
0.00187445,92.7563
0.00188195,92.8544
0.00188947,92.8545
0.00189696,92.8527
0.00190451,92.9423
0.00191194,92.9194
0.00191948,93.0115
0.00192698,93.11
0.00193445,93.0525
0.00194195,93.167
0.00194949,93.2381
0.00195696,93.1961
0.00196444,93.3577
0.00197196,93.4695
0.00197944,93.5206
0.00198693,93.5923
0.00199447,93.551
0.00200196,93.7004
0.00200946,93.7073
0.00201693,93.744
0.00202442,93.7787
0.00203194,93.9362
0.00203944,94.0533
0.00204695,94.0915
0.00205437,94.1213
0.00206193,94.1396
0.00206944,94.2626
0.00207689,94.291
0.00208439,94.2506
0.00209188,94.4608
0.00209941,94.4895
0.0021069,94.3824
0.00211436,94.226
0.00212187,94.0164
0.00212935,-0.230355
0.00213689,-0.128784
0.00214437,-0.184669
0.00215185,-0.260816
0.00215283,-0.209538

File: Tensile_test_5.csv
Displacement,Load
-2.57587e-11,0.0502537
6.78287e-06,0.306958
1.4308e-05,0.502866
2.1771e-05,0.651028
2.92801e-05,0.919515
3.67764e-05,1.17461
4.42719e-05,1.4813
5.17745e-05,1.6434
5.92775e-05,1.99924
6.67532e-05,2.20744
7.42596e-05,2.52123
8.17821e-05,2.78938
8.92467e-05,3.18777
9.67645e-05,3.41825
0.000104278,3.80281
0.000111754,4.39784
0.000119247,4.63175
0.000126763,5.08531
0.000134256,5.25153
0.000141745,5.8497
0.000149252,6.28132
0.000156744,6.75181
0.000164242,7.20354
0.000171742,7.77399
0.000179248,8.33925
0.000186738,8.97005
0.00019426,9.65015
0.000201772,10.0284
0.000209255,10.6324
0.000216728,11.2374
0.000224278,11.8689
0.000231789,12.4253
0.00023929,13.119
0.000246791,13.8169
0.000254281,14.3146
0.000261781,14.9653
0.000269276,15.6522
0.000276789,16.2291
0.000284262,17.0219
0.000291781,17.6349
0.000299271,18.184
0.000306772,18.8352
0.000314294,19.6719
0.000321804,20.5343
0.000329268,21.2525
0.000336769,22.0745
0.000344278,22.89
0.000351788,23.6859
0.000359257,24.4965
0.000366765,25.3415
0.000374286,26.1526
0.000381758,26.9679
0.00038928,28.0009
0.000396778,28.6605
0.000404239,29.2314
0.000411775,30.0649
0.000419281,30.9247
0.000426738,31.5412
0.000434254,32.4234
0.000441764,33.2617
0.000449247,34.1773
0.000456744,35.0016
0.000464234,35.6867
0.00047172,36.4668
0.000479236,37.3536
0.00048674,38.0682
0.000494251,38.9834
0.000501734,39.7852
0.000509239,40.4212
0.00051673,41.1472
0.000524227,41.7763
0.000531741,42.3919
0.000539236,43.2226
0.000546707,43.8615
0.00055421,44.6465
0.000561726,45.3635
0.000569228,46.1622
0.000576727,47.0719
0.000584221,47.6228
0.00059172,48.1545
0.000599232,49.0089
0.000606728,49.7279
0.000614191,50.6099
0.000621715,51.5643
0.000629222,52.5143
0.000636718,53.4409
0.0006442,54.2296
0.000651698,54.9637
0.000659192,55.9189
0.000666692,56.8154
0.000674208,57.8687
0.000681702,58.7693
0.000689148,59.796
0.000696693,60.7124
0.000704193,61.587
0.000711694,62.544
0.00071919,63.633
0.000726682,64.718
0.000734192,65.7529
0.00074169,66.7202
0.000749175,67.611
0.00075668,68.6357
0.000764169,69.5736
0.000771673,70.4849
0.000779174,71.5641
0.00078664,72.4947
0.00079418,73.5099
0.00080168,74.5971
0.000809174,75.4834
0.000816688,76.5459
0.000824167,77.4422
0.00083163,78.3986
0.000839172,79.3966
0.000846676,80.3421
0.000854145,81.1218
0.000861644,82.0832
0.000869152,82.857
0.000876647,83.7697
0.000884138,84.5715
0.000891651,85.3412
0.000899088,86.0687
0.000906658,86.9465
0.000914141,87.8209
0.000921598,88.3381
0.00092912,89.1727
0.00093663,89.8079
0.000944089,90.5027
0.000951591,90.9743
0.000959088,91.6787
0.000966582,92.2457
0.000974067,92.778
0.000981582,93.375
0.00098909,93.8562
0.000996561,94.1632
0.00100406,94.5894
0.00101157,95.079
0.00101908,95.3021
0.00102655,95.7303
0.00103408,96.0362
0.00104156,96.3414
0.00104906,96.5858
0.00105657,96.8977
0.00106404,97.0774
0.00107156,97.2395
0.00107906,97.3767
0.00108655,97.6243
0.00109405,97.521
0.00110154,97.6113
0.00110905,97.6984
0.00111653,97.7017
0.00112408,97.8088
0.00113159,97.8213
0.00113905,97.6857
0.00114656,97.7065
0.00115413,97.684
0.00116159,97.4691
0.00116908,97.3727
0.00117659,97.3584
0.00118408,97.1584
0.00119158,97.0457
0.0011991,96.9664
0.0012066,96.8442
0.00121408,96.4796
0.00122158,96.4597
0.00122908,96.4627
0.00123657,96.4159
0.00124407,96.3096
0.00125158,96.1174
0.00125905,96.0364
0.00126658,95.932
0.00127408,95.8693
0.00128159,95.6884
0.00128906,95.6865
0.00129657,95.5111
0.00130406,95.3699
0.00131154,95.1935
0.00131907,94.9884
0.00132656,94.6931
0.00133405,94.6198
0.00134155,94.4114
0.00134905,94.3311
0.00135654,93.875
0.00136406,93.7668
0.00137154,93.6169
0.00137903,93.4015
0.00138656,93.2644
0.00139405,93.1917
0.00140152,92.9322
0.00140906,92.7564
0.00141654,92.6052
0.00142405,92.4839
0.00143152,92.5231
0.00143903,92.3799
0.00144652,92.2063
0.00145402,92.2062
0.00146155,92.2618
0.00146906,91.986
0.00147651,91.9389
0.00148405,91.7652
0.00149153,91.7626
0.001499,91.6293
0.00150653,91.5389
0.00151401,91.5329
0.00152152,91.4197
0.00152903,91.4299
0.00153653,91.3196
0.00154401,91.1924
0.00155152,91.1985
0.00155903,91.1417
0.0015665,91.168
0.00157401,91.1815
0.00158149,91.0979
0.00158898,90.9518
0.0015965,91.0152
0.00160402,90.9076
0.00161148,90.9929
0.00161898,90.8347
0.00162651,90.9069
0.00163401,90.8286
0.00164146,90.8783
0.00164899,90.7616
0.00165649,90.7508
0.00166397,90.7094
0.00167148,90.7377
0.00167901,90.79
0.00168647,90.6955
0.00169399,90.7173
0.0017015,90.7565
0.00170899,90.7301
0.00171648,90.7089
0.00172398,90.7549
0.00173147,90.6939
0.00173897,90.7733
0.00174649,90.7465
0.00175394,90.7562
0.00176148,90.8376
0.00176898,90.9871
0.00177643,90.9699
0.00178396,90.865
0.00179146,91.0007
0.00179897,91.0038
0.00180646,90.8942
0.00181397,91.0919
0.00182145,91.06
0.0018289,91.1076
0.0018364,91.2717
0.00184393,91.2422
0.00185139,91.2383
0.00185891,91.2221
0.00186638,91.302
0.00187389,91.2939
0.00188138,91.3475
0.0018889,91.4762
0.00189637,91.5829
0.00190387,91.535
0.00191139,91.6383
0.00191889,91.6888
0.00192638,91.8897
0.00193388,91.9187
0.00194138,91.9171
0.00194887,92.0836
0.00195638,92.1434
0.00196387,92.1784
0.00197135,92.2289
0.00197886,92.2621
0.00198639,92.2927
0.00199387,92.3985
0.00200133,92.4715
0.00200887,92.5777
0.00201636,92.5552
0.00202385,92.6357
0.00203136,92.7173
0.00203885,92.7613
0.00204634,92.8104
0.0020539,92.8643
0.00206133,92.9717
0.00206883,92.9921
0.00207634,93.1428
0.0020839,93.1504
0.00209138,93.0469
0.00209891,92.972
0.00210633,93.0654
0.00211387,92.9652
0.00212138,92.9454
0.00212888,92.9892
0.00213638,93.1189
0.00214387,93.0128
0.00215137,92.9452
0.0021589,92.9711
0.00216635,92.9318
0.00217385,92.9837
0.00218138,92.9144
0.00218885,0.0232248
0.00219639,-0.0485934
0.0022039,0.011725
0.00221134,-0.0368729
0.00221885,-0.0487057
0.00222638,-0.038263
0.00223386,-0.0714585
0.00224135,-0.0812604
0.00224686,-0.0141523

File: Tensile_test_6.csv
Displacement,Load
-3.40439e-16,-0.0371654
2.7328e-06,0.368321
6.71493e-06,1.03916
1.0729e-05,1.17168
1.47323e-05,1.25817
1.87046e-05,1.51661
2.27243e-05,1.64282
2.6726e-05,1.89815
3.07069e-05,2.12594
3.4715e-05,2.31388
3.86963e-05,2.39003
4.27011e-05,2.62302
4.66915e-05,2.76063
5.07229e-05,2.92789
5.47236e-05,3.15155
5.87005e-05,3.07273
6.26996e-05,3.19829
6.66824e-05,3.36448
7.07056e-05,3.52471
7.46932e-05,3.76394
7.87213e-05,3.96239
8.27035e-05,4.20215
8.67122e-05,4.31068
9.06825e-05,4.57516
9.46933e-05,4.88457
9.87048e-05,5.01124
0.000102717,5.30261
0.000106713,5.44015
0.000110687,5.72932
0.000114697,5.80108
0.000118672,6.14935
0.000122699,6.38249
0.000126688,6.56763
0.000130706,6.83982
0.000134706,7.08721
0.000138676,7.41372
0.000142684,7.67037
0.00014669,8.09251
0.000150698,8.38909
0.000154676,8.78765
0.000158691,9.15223
0.000162667,9.5142
0.000166662,9.88619
0.000170699,10.3211
0.000174698,10.728
0.000178695,11.1787
0.000182681,11.7122
0.000186666,12.1887
0.000190658,12.7309
0.000194693,13.2527
0.000198693,13.7996
0.000202671,14.3089
0.000206652,14.8827
0.000210657,15.4828
0.000214679,15.9602
0.000218665,16.548
0.000222676,17.1178
0.000226665,17.6119
0.000230678,18.1579
0.00023465,18.7008
0.000238654,19.3122
0.000242672,19.9028
0.00024668,20.5455
0.000250663,20.9864
0.000254658,21.7285
0.000258645,22.3162
0.000262658,22.8869
0.000266649,23.4213
0.00027065,24.0699
0.000274657,24.6987
0.000278646,25.2018
0.000282653,25.7409
0.000286643,26.1969
0.000290647,26.7611
0.000294658,27.2688
0.000298668,27.9336
0.000302644,28.4306
0.00030663,29.0305
0.000310633,29.4335
0.000314646,30.0253
0.000318645,30.6194
0.000322632,31.1664
0.000326624,31.7407
0.000330626,32.2569
0.000334656,32.7624
0.000338638,33.3749
0.000342654,33.8667
0.000346636,34.4459
0.000350613,34.92
0.00035462,35.4827
0.000358628,36.0958
0.00036264,36.5152
0.000366652,36.9515
0.000370623,37.6112
0.000374643,38.1854
0.000378635,38.6285
0.000382625,39.2537
0.000386635,39.5344
0.000390649,40.0174
0.000394612,40.4159
0.000398636,40.9076
0.00040262,41.285
0.000406612,41.7368
0.000410633,42.1962
0.000414624,42.5471
0.000418598,43.1053
0.000422612,43.5578
0.000426601,44.1311
0.000430636,44.4283
0.000434641,44.9832
0.000438657,45.4402
0.000442638,45.7882
0.000446598,46.2134
0.000450602,46.5719
0.000454601,47.0435
0.000458628,47.4638
0.000462596,47.9665
0.000466605,48.4273
0.000470586,48.7999
0.000474619,49.4279
0.000478614,50.0121
0.0004826,50.6098
0.000486614,51.1401
0.000490595,51.6702
0.00049459,52.1609
0.000498601,52.6688
0.000502596,53.0226
0.000506592,53.5465
0.000510586,53.9947
0.000514605,54.5722
0.000518581,55.2716
0.000522601,55.8329
0.000526586,56.4192
0.00053059,57.0105
0.000534619,57.5444
0.000538581,58.1991
0.000542581,58.7461
0.000546604,59.2597
0.000550598,59.8199
0.000554589,60.2528
0.000558591,60.9726
0.000562595,61.645
0.000566588,62.2385
0.000570575,62.871
0.000574581,63.5225
0.000578579,64.1355
0.000582573,64.7753
0.00058658,65.5076
0.000590574,66.1026
0.000594565,66.7475
0.000598571,67.304
0.000602598,67.9896
0.000606595,68.5298
0.000610598,69.2335
0.000614557,69.8682
0.000618564,70.5252
0.000622567,71.2701
0.000626574,71.8751
0.00063058,72.5235
0.00063456,73.1582
0.000638561,73.789
0.000642546,74.4944
0.000646569,75.1216
0.000650557,75.737
0.000654555,76.3399
0.000658552,77.0197
0.000662557,77.5732
0.000666553,78.1562
0.000670577,78.9378
0.000674564,79.6979
0.000678561,80.0772
0.00068255,80.803
0.00068655,81.5693
0.000690526,82.1791
0.00069453,82.9877
0.00069858,83.5264
0.000702567,84.13
0.000706571,84.5021
0.000710561,85.1437
0.000714549,85.5823
0.000718559,86.1212
0.000722567,86.5966
0.000726545,87.134
0.000730557,87.6777
0.000734557,87.9779
0.000738521,88.6646
0.000742533,89.1791
0.000746573,89.5661
0.000750546,90.0459
0.000754541,90.2672
0.000758541,90.8298
0.000762531,91.3423
0.000766552,91.6958
0.000770537,91.9975
0.00077455,92.6183
0.000778521,93.0916
0.000782508,93.4584
0.000786533,93.8743
0.000790556,94.1561
0.000794527,94.6203
0.000798543,94.9874
0.000802529,95.3471
0.000806488,95.7065
0.000810539,96.0421
0.000814524,96.4158
0.000818504,96.7946
0.000822532,96.9889
0.000826521,97.2694
0.000830513,97.6287
0.000834502,97.9432
0.000838524,98.1362
0.000842498,98.4479
0.000846529,98.7217
0.000850533,98.8992
0.000854509,99.2052
0.000858514,99.4785
0.000862514,99.679
0.000866524,99.8315
0.000870526,100.023
0.000874512,100.164
0.000878507,100.312
0.000882484,100.539
0.000886516,100.644
0.000890534,100.86
0.00089451,100.983
0.000898506,101.075
0.000902494,101.24
0.000906481,101.306
0.000910514,101.584
0.000914505,101.489
0.000918494,101.669
0.00092248,101.674
0.00092652,101.845
0.000930489,101.926
0.000934524,101.909
0.000938515,101.972
0.000942498,102.099
0.000946512,102.046
0.000950506,102.048
0.000954516,102.135
0.000958525,102.089
0.000962496,102.089
0.000966496,102.174
0.000970474,102.152
0.000974466,102.137
0.000978482,102.162
0.000982489,102.115
0.000986486,102.025
0.000990491,102.091
0.000994482,102.111
0.000998478,102.032
0.0010025,101.975
0.00100648,101.971
0.00101049,101.971
0.00101449,101.847
0.00101849,101.814
0.00102247,101.824
0.00102649,101.804
0.00103046,101.837
0.00103449,101.779
0.00103848,101.626
0.00104245,101.489
0.00104646,101.519
0.00105048,101.443
0.00105449,101.378
0.0010585,101.374
0.00106246,101.256
0.00106646,101.214
0.00107045,101.209
0.00107446,101.102
0.00107845,101.097
0.00108248,100.951
0.00108645,100.959
0.00109045,101.022
0.00109444,100.911
0.00109846,100.896
0.00110245,100.812
0.00110648,100.999
0.00111047,100.827
0.00111448,100.692
0.00111845,100.77
0.00112248,100.583
0.00112646,100.745
0.00113046,100.533
0.00113444,100.515
0.00113833,-0.605481
0.00114244,-0.697206
0.00114645,-0.640853
0.00115045,-0.684488
0.00115444,-0.75646
0.00115844,-0.677735
0.00116243,-0.655341
0.00116644,-0.769915
0.00117046,-0.704691