Folder: MaRCN_Tensile_Ontology/data/PrimaryData/V4_Resin

Note: README.md
# MaRCN_Tensile_Ontology
 Exercise on FAIR Tensile data under RDF files

File: Tensile_test_2.csv
Displacement,Load
6.43149e-16,-0.291592
6.37169e-06,1.48271
1.43924e-05,2.93185
2.23587e-05,4.05708
3.03475e-05,5.1891
3.83816e-05,6.47535
4.63647e-05,7.66396
5.43543e-05,8.99117
6.23797e-05,10.3505
7.03503e-05,11.5394
7.83547e-05,13.2
8.63707e-05,14.712
9.43625e-05,16.3058
0.000102347,17.9313
0.000110336,19.4274
0.000118335,21.1797
0.000126279,22.9524
0.000134289,24.6897
0.000142284,26.4048
0.000150282,28.1508
0.000158287,30.0273
0.000166283,31.6479
0.000174276,33.1596
0.000182281,34.6635
0.000190278,36.3008
0.000198267,37.7621
0.000206289,39.0662
0.000214264,40.4159
0.000222264,41.7872
0.000230277,43.045
0.000238253,44.4446
0.000246265,45.7979
0.000254279,47.0549
0.000262245,48.5668
0.000270245,50.0024
0.000278261,51.6118
0.000286249,52.9868
0.000294249,54.4425
0.000302272,55.6641
0.000310237,57.0865
0.000318273,58.6812
0.000326244,60.3129
0.000334262,61.8756
0.000342255,63.3777
0.00035023,64.9983
0.000358232,66.4383
0.000366227,67.9338
0.000374301,69.6954
0.000382278,71.2516
0.000390288,72.8397
0.0003983,74.3293
0.000406268,75.8586
0.000414287,77.4839
0.00042229,79.1271
0.000430267,80.9506
0.000438289,82.565
0.000446297,84.3568
0.000454284,85.9071
0.00046227,87.6235
0.000470283,89.1839
0.000478279,90.819
0.000486236,92.4443
0.00049427,94.1257
0.000502278,95.7322
0.00051023,97.4973
0.000518273,99.311
0.000526271,101.236
0.000534269,103.148
0.000542276,105.012
0.000550253,106.898
0.000558247,108.705
0.000566277,110.577
0.000574252,112.393
0.000582267,114.193
0.000590264,115.963
0.000598245,117.775
0.000606262,119.48
0.000614271,121.21
0.00062221,122.846
0.000630246,124.495
0.00063827,126.126
0.000646246,127.631
0.000654242,129.204
0.000662253,130.876
0.000670238,132.298
0.00067823,133.76
0.000686259,135.247
0.000694226,136.685
0.000702228,138.035
0.000710211,139.425
0.00071822,140.897
0.000726203,142.16
0.00073421,143.561
0.000742215,144.839
0.000750232,146.001
0.000758228,147.321
0.000766204,148.492
0.000774223,149.713
0.000782224,150.716
0.000790172,151.948
0.0007982,152.841
0.000806218,153.955
0.000814199,154.876
0.00082223,155.642
0.000830224,156.598
0.000838206,157.552
0.000846197,158.321
0.000854182,159.04
0.000862216,159.818
0.000870186,160.462
0.000878205,161.125
0.000886183,161.568
0.000894195,162.301
0.000902195,162.688
0.000910164,163.106
0.0009182,163.596
0.000926171,163.887
0.000934172,164.163
0.00094217,164.513
0.000950185,164.738
0.000958171,164.811
0.000966199,165.042
0.000974192,165.079
0.000982152,165.237
0.000990168,165.279
0.000998192,165.21
0.00100616,165.084
0.00101417,165.033
0.00102216,164.964
0.00103014,164.864
0.00103814,164.644
0.00104615,164.612
0.00105416,164.335
0.00106216,164.009
0.00107012,163.72
0.0010781,163.562
0.00108608,163.248
0.00109407,162.855
0.00110206,162.668
0.00111008,162.151
0.00111809,161.799
0.00112606,161.366
0.0011341,161.095
0.00114208,160.675
0.00115006,160.207
0.0011581,159.841
0.00116606,159.535
0.00117408,159.194
0.00118208,158.807
0.00119006,158.333
0.00119806,157.987
0.00120606,157.66
0.00121405,157.099
0.00122204,156.703
0.00123004,156.324
0.00123806,156.006
0.00124607,155.656
0.00125407,155.369
0.00126211,154.796
0.00127008,154.509
0.00127809,154.252
0.0012861,153.795
0.0012941,153.372
0.00130212,153.013
0.00131007,152.644
0.00131809,152.347
0.00132611,152.04
0.00133407,151.802
0.0013421,151.475
0.00135009,151.076
0.00135808,150.89
0.00136607,150.646
0.00137408,150.363
0.00138209,150.092
0.00139007,149.794
0.00139807,149.612
0.00140606,149.289
0.00141407,149.095
0.00142209,148.964
0.00143006,148.679
0.00143804,148.707
0.00144608,148.509
0.00145407,148.208
0.00146208,148.132
0.00147007,147.861
0.00147805,147.866
0.00148605,147.718
0.00149409,147.687
0.00150208,147.484
0.00151006,147.334
0.00151808,147.246
0.00152604,147.12
0.00153405,147.083
0.00154203,146.99
0.00155004,146.932
0.00155805,146.781
0.00156603,146.581
0.00157406,146.511
0.00158204,146.428
0.00159005,146.223
0.00159802,146.315
0.00160602,146.223
0.00161405,145.919
0.00162203,145.967
0.00163002,145.843
0.00163804,145.832
0.00164602,145.745
0.00165402,145.596
0.00166204,145.713
0.00167002,145.473
0.00167803,145.472
0.00168601,145.366
0.001694,145.534
0.00170203,145.411
0.00171002,145.416
0.00171802,145.437
0.00172602,145.384
0.00173402,145.427
0.00174202,145.451
0.00175002,145.375
0.00175798,145.359
0.00176599,145.407
0.00177399,145.372
0.00178197,145.442
0.00179,145.5
0.00179799,145.622
0.001806,145.528
0.00181399,145.661
0.00182199,145.698
0.00182999,145.763
0.00183793,145.868
0.001846,145.989
0.00185401,145.998
0.00186198,146.005
0.00187,146.027
0.00187797,146.096
0.001886,146.156
0.00189399,146.166
0.00190198,146.289
0.00190994,146.197
0.00191797,146.314
0.00192596,146.417
0.00193394,146.469
0.00194198,146.434
0.00194994,146.418
0.00195795,146.695
0.00196596,146.725
0.00197391,146.787
0.00198188,146.774
0.00198994,146.9
0.00199792,146.839
0.00200588,146.96
0.00201391,146.921
0.00202188,147.103
0.00202989,146.988
0.00203791,147.028
0.00204591,147.15
0.00205386,147.236
0.00206189,147.27
0.00206988,147.353
0.00207787,147.469
0.00208591,147.524
0.00209387,147.463
0.00210187,147.505
0.00210988,147.726
0.00211786,147.76
0.00212584,147.825
0.00213387,147.907
0.00214188,148.118
0.00214987,148.104
0.0021579,148.16
0.00216586,148.268
0.00217388,148.297
0.00218193,148.404
0.00218992,148.507
0.0021979,148.535
0.00220593,148.631
0.0022139,148.719
0.00222184,148.772
0.0022299,148.961
0.00223791,148.933
0.00224589,149.006
0.00225389,149.045
0.00226189,149.118
0.00226989,149.23
0.00227789,149.127
0.00228589,149.249
0.00229373,-4.56988
0.00230189,-4.70514
0.00230988,-4.77494
0.00231787,-4.81103
0.00232138,-4.76599

File: Tensile_test_7.csv
Displacement (mm),Load (kN)
0.0,0.0011
0.0093,0.01
0.0201,0.0198
0.0305,0.0286
0.041,0.0363
0.0517,0.0434
0.0624,0.0506
0.073,0.0573
0.0837,0.0635
0.0945,0.0694
0.1055,0.0756
0.1161,0.0813
0.1263,0.0866
0.1368,0.0921
0.1476,0.0979
0.1586,0.1025
0.1695,0.1033
0.1798,0.1051
0.1904,0.1073
0.201,0.1101
0.2117,0.1147
0.2224,0.1204
0.233,0.1261
0.2438,0.1321
0.2547,0.138
0.2656,0.1434
0.2757,0.1476
0.2862,0.1519
0.2969,0.1564
0.3079,0.161
0.3189,0.1656
0.3293,0.1697
0.3397,0.1734
0.3503,0.1773
0.361,0.1813
0.3717,0.1851
0.3823,0.1888
0.3931,0.1925
0.4041,0.1964
0.4149,0.2001
0.4251,0.2032
0.4355,0.2063
0.4463,0.2099
0.4572,0.2136
0.4681,0.2172
0.4786,0.2205
0.489,0.2235
0.4997,0.2269
0.5104,0.2301
0.521,0.2333
0.5317,0.2366
0.5424,0.2399
0.5533,0.2432
0.5643,0.2467
0.5745,0.2496
0.5849,0.2525
0.5956,0.2556
0.6065,0.2591
0.6175,0.2627
0.628,0.2658
0.6384,0.2688
0.649,0.2718
0.6597,0.2752
0.6704,0.2785
0.681,0.2815
0.6917,0.2849
0.7026,0.2883
0.7136,0.2919
0.724,0.2949
0.7342,0.2977
0.7449,0.3009
0.7557,0.3043
0.7667,0.308
0.7774,0.3113
0.7878,0.3143
0.7983,0.3174
0.809,0.3205
0.8197,0.3237
0.8303,0.3267
0.8411,0.3299
0.852,0.3335
0.8629,0.3368
0.8733,0.3399
0.8836,0.343
0.8942,0.3464
0.9051,0.3499
0.9161,0.3537
0.9267,0.3572
0.9371,0.3603
0.9477,0.3637
0.9584,0.3671
0.969,0.3703
0.9797,0.3735
0.9904,0.3769
1.0012,0.3803
1.0122,0.384
1.0227,0.3871
1.0329,0.39
1.0435,0.3933
1.0544,0.3968
1.0654,0.4005
1.0761,0.4041
1.0865,0.4074
1.097,0.4107
1.1077,0.4142
1.1184,0.4176
1.129,0.421
1.1397,0.4243
1.1505,0.4278
1.1615,0.4314
1.1721,0.4347
1.1823,0.4375
1.1928,0.4406
1.2036,0.444
1.2147,0.4475
1.2255,0.4508
1.2358,0.4538
1.2463,0.457
1.257,0.4602
1.2677,0.4635
1.2783,0.4667
1.289,0.4702
1.2998,0.4736
1.3108,0.477
1.3214,0.4802
1.3316,0.483
1.3422,0.4859
1.353,0.488
1.364,0.4897
1.3748,0.4937
1.3852,0.497
1.3957,0.5005
1.4064,0.5038
1.417,0.5073
1.4277,0.5106
1.4383,0.5139
1.4491,0.5173
1.4601,0.5209
1.4709,0.5242
1.4811,0.527
1.4915,0.53
1.5023,0.5332
1.5132,0.5368
1.5242,0.5403
1.5346,0.5432
1.545,0.5462
1.5557,0.5494
1.5664,0.5525
1.577,0.5557
1.5876,0.5587
1.5984,0.5621
1.6094,0.5654
1.6202,0.5687
1.6305,0.5716
1.6408,0.5744
1.6516,0.5776
1.6625,0.5807
1.6734,0.5841
1.6839,0.5869
1.6944,0.5898
1.705,0.5928
1.7157,0.5959
1.7264,0.5987
1.737,0.6018
1.7477,0.6049
1.7587,0.6081
1.7696,0.6114
1.7798,0.6139
1.7902,0.6166
1.8009,0.6195
1.8118,0.6227
1.8228,0.626
1.8333,0.6286
1.8438,0.6312
1.8544,0.6342
1.865,0.637
1.8757,0.6397
1.8863,0.6424
1.8971,0.6453
1.908,0.6481
1.9189,0.65
1.9293,0.6514
1.9396,0.6532
1.9502,0.6561
1.9611,0.6592
1.9721,0.6624
1.9827,0.6652
1.9931,0.6677
2.0037,0.6702
2.0144,0.6729
2.025,0.6754
2.0356,0.6779
2.0464,0.6805
2.0573,0.6831
2.0683,0.686
2.0786,0.688
2.0889,0.69
2.0995,0.6925
2.1104,0.6948
2.1214,0.6974
2.1321,0.6997
2.1424,0.7017
2.153,0.7038
2.1637,0.7059
2.1744,0.7079
2.185,0.71
2.1957,0.7121
2.2065,0.7142
2.2175,0.7163
2.228,0.7182
2.2383,0.7197
2.2489,0.7213
2.2597,0.7233
2.2707,0.7253
2.2814,0.727
2.2918,0.7285
2.3024,0.7299
2.3131,0.7315
2.3237,0.7331
2.3343,0.7345
2.345,0.7359
2.3558,0.7376
2.3669,0.7392
2.3774,0.7404
2.3876,0.7413
2.3982,0.7423
2.409,0.7436
2.42,0.7451
2.4308,0.746
2.4412,0.7468
2.4517,0.7475
2.4623,0.7483
2.4731,0.7492
2.4837,0.7498
2.4944,0.7505
2.5052,0.7512
2.5161,0.752
2.5268,0.7525
2.537,0.7525
2.5475,0.7528
2.5583,0.7531
2.5693,0.7537
2.5801,0.754
2.5905,0.7541
2.6011,0.754
2.6117,0.754
2.6224,0.7538
2.633,0.7537
2.6437,0.7537
2.6544,0.7535
2.6654,0.7535
2.6762,0.7533
2.6864,0.7526
2.6968,0.7519
2.7076,0.7514
2.7186,0.7513
2.7295,0.751
2.7399,0.7502
2.7504,0.7493
2.761,0.7486
2.7717,0.7479
2.7824,0.7472
2.793,0.7464
2.8038,0.7457
2.8147,0.745
2.8256,0.7444
2.8358,0.743
2.8462,0.7418
2.8569,0.741
2.8679,0.7402
2.8788,0.7394
2.8892,0.7383
2.8997,0.7371
2.9104,0.7359
2.921,0.7349
2.9317,0.7338
2.9423,0.7326
2.9531,0.7316
2.964,0.7308
2.9749,0.7297
2.9852,0.7284
2.9955,0.727
3.0063,0.7258
3.0172,0.7248
3.0281,0.724
3.0386,0.7227
3.0491,0.7213
3.0597,0.7203
3.0704,0.7191
3.0811,0.7182
3.0917,0.717
3.1024,0.7159
3.1133,0.715
3.1242,0.714
3.1297,0.7544

File: Tensile_test_8.csv
Displacement (mm),Load (kN)
0.0,-0.0568
0.0095,-0.0469
0.0195,-0.0373
0.0297,-0.0277
0.0401,-0.0186
0.0504,-0.0096
0.0608,-0.0009
0.0715,0.0082
0.0816,0.0162
0.0915,0.0239
0.1021,0.032
0.1128,0.0402
0.1229,0.0473
0.133,0.0541
0.1434,0.0608
0.1537,0.0669
0.1641,0.073
0.1749,0.079
0.1849,0.0839
0.1949,0.0884
0.2054,0.0932
0.2161,0.0977
0.2261,0.1012
0.2363,0.1042
0.2468,0.107
0.257,0.1079
0.2674,0.1064
0.2782,0.1095
0.2882,0.1122
0.2982,0.1148
0.3087,0.1179
0.3195,0.1158
0.3295,0.1223
0.3397,0.1281
0.3501,0.1333
0.3603,0.1384
0.3708,0.1432
0.3816,0.1487
0.3916,0.1531
0.4015,0.1576
0.4121,0.1625
0.4228,0.1674
0.4328,0.1717
0.443,0.1758
0.4534,0.18
0.4637,0.1841
0.4741,0.1883
0.4849,0.1926
0.4949,0.1963
0.5049,0.1996
0.5154,0.2035
0.5261,0.2075
0.5362,0.2109
0.5463,0.2141
0.5567,0.2176
0.567,0.2211
0.5774,0.2245
0.5882,0.2281
0.5983,0.2312
0.6082,0.2341
0.6187,0.2375
0.6295,0.2411
0.6395,0.2441
0.6497,0.247
0.6601,0.2502
0.6703,0.2533
0.6808,0.2565
0.6915,0.2601
0.7016,0.2629
0.7115,0.2657
0.7221,0.269
0.7329,0.2726
0.7429,0.2755
0.753,0.2784
0.7634,0.2817
0.7737,0.2848
0.7841,0.288
0.7948,0.2918
0.805,0.2949
0.8148,0.2975
0.8254,0.3007
0.8361,0.3041
0.8462,0.307
0.8564,0.3099
0.8667,0.3131
0.877,0.3161
0.8874,0.3193
0.8982,0.3228
0.9083,0.3259
0.9182,0.3287
0.9287,0.3322
0.9395,0.336
0.9495,0.3393
0.9597,0.3426
0.9701,0.3459
0.9804,0.3491
0.9907,0.3524
1.0015,0.3561
1.0116,0.3592
1.0215,0.3619
1.032,0.3656
1.0428,0.3696
1.0529,0.3727
1.063,0.3758
1.0734,0.3793
1.0837,0.3827
1.0941,0.386
1.1049,0.39
1.115,0.3932
1.1249,0.3959
1.1354,0.3993
1.1461,0.403
1.1562,0.4059
1.1664,0.4091
1.1767,0.4122
1.187,0.4154
1.1974,0.4186
1.2081,0.4222
1.2183,0.4255
1.2282,0.4283
1.2387,0.4316
1.2494,0.4354
1.2595,0.4384
1.2697,0.4415
1.2801,0.4448
1.2904,0.448
1.3007,0.4514
1.3114,0.4549
1.3217,0.4582
1.3316,0.4607
1.342,0.464
1.3528,0.4678
1.3629,0.4707
1.373,0.4737
1.3834,0.4769
1.3937,0.4801
1.4041,0.4833
1.4148,0.4868
1.425,0.4902
1.4349,0.4931
1.4453,0.4967
1.4561,0.5006
1.4662,0.5037
1.4764,0.5069
1.4867,0.5102
1.497,0.5135
1.5074,0.5167
1.5181,0.5203
1.5284,0.5236
1.5382,0.5263
1.5487,0.5296
1.5594,0.5333
1.5696,0.5363
1.5797,0.5393
1.5901,0.5425
1.6003,0.5456
1.6107,0.5487
1.6215,0.5523
1.6317,0.5553
1.6416,0.5579
1.652,0.5611
1.6628,0.5645
1.6729,0.5674
1.6831,0.5703
1.6934,0.5734
1.7037,0.5762
1.7141,0.5792
1.7247,0.5825
1.735,0.5853
1.7449,0.5878
1.7553,0.5907
1.7661,0.594
1.7763,0.5967
1.7864,0.5994
1.7967,0.6022
1.807,0.6049
1.8174,0.6078
1.8281,0.6108
1.8384,0.6136
1.8482,0.6158
1.8587,0.6185
1.8694,0.6216
1.8796,0.6241
1.8897,0.6265
1.9001,0.6292
1.9104,0.6317
1.9207,0.6342
1.9314,0.6371
1.9417,0.6396
1.9516,0.6416
1.962,0.6441
1.9727,0.6469
1.9829,0.6492
1.993,0.6515
2.0034,0.6538
2.0137,0.6559
2.024,0.6581
2.0347,0.6607
2.0451,0.6629
2.0549,0.6645
2.0653,0.6666
2.0761,0.669
2.0863,0.6709
2.0964,0.6727
2.1067,0.6745
2.117,0.6762
2.1274,0.6779
2.1381,0.6802
2.1484,0.6816
2.1582,0.6828
2.1686,0.6845
2.1794,0.6866
2.1896,0.6879
2.1997,0.6894
2.21,0.6908
2.2204,0.6921
2.2307,0.6933
2.2414,0.6947
2.2518,0.696
2.2616,0.6956
2.272,0.6943
2.2827,0.6966
2.293,0.6981
2.303,0.6995
2.3134,0.7011
2.3237,0.7024
2.334,0.7038
2.3447,0.7053
2.3551,0.7066
2.3649,0.7071
2.3753,0.7082
2.3861,0.7096
2.3962,0.7104
2.4064,0.711
2.4167,0.7118
2.427,0.7126
2.4374,0.7132
2.4481,0.7141
2.4585,0.7147
2.4682,0.7146
2.4786,0.7151
2.4894,0.7158
2.4997,0.716
2.5097,0.7159
2.52,0.716
2.5304,0.7161
2.5407,0.716
2.5514,0.7164
2.5618,0.7164
2.5716,0.7158
2.582,0.7157
2.5927,0.7158
2.6029,0.7155
2.6131,0.7149
2.6234,0.7145
2.6337,0.7142
2.644,0.7137
2.6547,0.7134
2.6651,0.7132
2.6749,0.7119
2.6853,0.7114
2.696,0.7111
2.7063,0.7104
2.7164,0.7095
2.7267,0.7087
2.737,0.7078
2.7474,0.7069
2.758,0.7064
2.7685,0.7056
2.7783,0.7044
2.7886,0.7032
2.7994,0.7027
2.8097,0.7018
2.8197,0.7005
2.8301,0.6994
2.8404,0.6984
2.8507,0.6974
2.8614,0.6966
2.8718,0.6956
2.8816,0.6942
2.892,0.6931
2.9027,0.6924
2.913,0.6913
2.9231,0.69
2.9334,0.6889
2.9437,0.6878
2.954,0.6866
2.9646,0.686
2.9752,0.6851
2.9849,0.6834
2.9953,0.6824
3.006,0.6817
3.0163,0.6806
3.0264,0.6792
3.0367,0.6782
3.047,0.6772
3.0564,0.7167