Folder: MaRCN_Tensile_Ontology/data/ReportRaw/Resin_TXT/Unknown_Resin

Note: README.md
# MaRCN_Tensile_Ontology
 Exercise on FAIR Tensile data under RDF files

File: Tensile_Test_01.txt
Program Started: Tue, Jul 16, 2024	1:13:32 PM	System: µTS4
Test Notes:

User displacement limits active. Low limit -20.000E-3 m, high limit 20.000E-3 m.
User load limits active. Low limit -1.600E+3 N, high limit 1.600E+3 N.

No closed loop control sensors in this test.

Test Segments:
 1. Ramp in Drive Control, +5.00E-3m Amplitude, 10.00E-6 m/s Speed. Sampling at 20.000 Hz, Lowpass Filter Cutoff of 100.000 Hz

Specimen Thickness (m): 	1.550E-3
Specimen Width (m): 	1.910E-3
Specimen Diameter (m): 	0.000E+0
Specimen Area (m^2): 	2.960E-6
Specimen Length (m): 	5.000E-3

Test Started: Tue, Jul 16, 2024	1:49:57 PM
Time (s)	LCFS1600 (N)	LCW1600 (N)	ECATENC (m)	SpecTemp (C)	AirTemp (C)	OutletTemp (C)	JTemp1600 (C)	GTemp1600 (C)	CUR (A)	Ve (V)	Trigger (#)
0.0000000000E+0	-0.320076	-0.179248	4.03323e-17	24.5234	24.5161	24.5307	32.8129	0.506562	0.0148763	10.1463	-1
1.4	1.10801	1.19252	1.36905e-05	24.5213	24.5243	24.5183	32.8119	0.505707	0.149628	10.1458	-1
2.8	1.8416	1.97094	2.76981e-05	24.5197	24.5081	24.5313	32.8119	0.506845	0.143377	10.1463	-1
4.2	2.71467	2.77317	4.16997e-05	24.5235	24.5179	24.5291	32.8118	0.507654	0.225483	10.1463	-1
5.6	3.54602	3.62151	5.56998e-05	24.5146	24.5107	24.5185	32.813	0.507031	0.144565	10.1463	-1
7	4.43079	4.52264	6.96896e-05	24.521	24.5167	24.5253	32.8126	0.506603	0.20723	10.1463	-1
8.4	5.3048	5.41114	8.3661e-05	24.5071	24.5158	24.4984	32.8134	0.506892	0.151673	10.1463	-1
9.8	6.34419	6.35688	9.76888e-05	24.5208	24.5224	24.5192	32.811	0.5052	0.112568	10.1465	-1
11.2	7.16522	7.31953	0.000111704	24.5001	24.5107	24.4895	32.8131	0.50745	0.205443	10.1467	-1
12.6	8.16036	8.28374	0.000125671	24.535	24.5282	24.5418	32.8125	0.505887	0.162431	10.1462	-1
14	9.16321	9.22022	0.000139701	24.5166	24.5154	24.5178	32.8143	0.506161	0.22386	10.1468	-1
15.4	10.2496	10.1858	0.000153708	24.5281	24.5432	24.5129	32.8118	0.506467	0.172686	10.1471	-1
16.8	11.1059	11.1517	0.000167698	24.5088	24.5163	24.5013	32.8124	0.507798	0.15418	10.1467	-1
18.2	12.0537	12.2052	0.000181689	24.5147	24.5347	24.4947	32.8125	0.506451	0.176263	10.1467	-1
19.6	13.3003	13.3792	0.000195672	24.5231	24.5089	24.5373	32.8135	0.506418	0.177388	10.1465	-1
21	14.4284	14.5951	0.000209721	24.5156	24.5126	24.5186	32.8149	0.507149	0.292565	10.1464	-1
22.4	15.8236	15.9658	0.000223709	24.5108	24.5128	24.5087	32.8132	0.506373	0.214046	10.1467	-1
23.8	17.2602	17.31	0.000237714	24.5236	24.517	24.5301	32.8131	0.505716	0.257226	10.1471	-1
25.2	18.5756	18.7561	0.000251695	24.5271	24.5203	24.534	32.8125	0.505707	0.255107	10.1471	-1
26.6	20.119	20.2657	0.000265734	24.5221	24.5163	24.528	32.8126	0.504792	0.230574	10.1476	-1
28	21.7743	21.8837	0.000279712	24.5188	24.5156	24.5221	32.8142	0.506768	0.281694	10.1475	-1
29.4	23.4618	23.5845	0.000293686	24.508	24.5038	24.5121	32.8151	0.506603	0.239077	10.1475	-1
30.8	24.8275	24.9433	0.000307698	24.5229	24.5234	24.5223	32.8142	0.505348	0.352237	10.1474	-1
32.2	26.4109	26.4906	0.000321693	24.5271	24.5197	24.5344	32.814	0.505579	0.263437	10.1476	-1
33.6	28.0895	28.2131	0.000335693	24.4998	24.5129	24.4867	32.8148	0.505187	0.18101	10.1476	-1
35	29.8036	29.8946	0.000349682	24.5149	24.5121	24.5177	32.8142	0.505572	0.309647	10.1476	-1
36.4	31.4265	Inf	0.000363682	24.5116	24.5036	24.5195	32.8142	0.505354	0.276882	10.1479	-1
37.8	32.7515	Inf	0.000377687	24.5141	24.5106	24.5175	32.8153	0.504936	0.343358	10.1481	-1
39.2	34.3663	Inf	0.000391659	24.5039	24.4992	24.5087	32.8137	0.50542	0.253158	10.1479	-1
40.6	35.969	Inf	0.000405674	24.5162	24.5201	24.5122	32.8149	0.505422	0.33046	10.1479	-1
42	37.5001	Inf	0.000419663	24.5079	24.5012	24.5147	32.8139	0.505594	0.337447	10.1476	-1
43.4	39.0269	Inf	0.000433695	24.5148	24.5037	24.526	32.8141	0.505345	0.244975	10.1479	-1
44.8	40.6268	Inf	0.000447662	24.5106	24.503	24.5182	32.8138	0.505691	0.374573	10.1477	-1
46.2	41.88	Inf	0.000461649	24.5146	24.5075	24.5218	32.8145	0.505654	0.343894	10.1486	-1
47.6	43.3277	Inf	0.000475678	24.5189	24.5199	24.5179	32.8134	0.504861	0.369322	10.1482	-1
49	44.3184	Inf	0.000489659	24.5022	24.4921	24.5123	32.8141	0.50528	0.315004	10.1482	-1
50.4	45.6538	Inf	0.000503662	24.5044	24.5081	24.5008	32.8145	0.504793	0.337502	10.1482	-1
51.8	47.0829	Inf	0.000517653	24.499	24.5103	24.4876	32.8162	0.504818	0.381358	10.1482	-1
53.2	48.5445	Inf	0.000531624	24.5115	24.5143	24.5086	32.8151	0.504474	0.354424	10.1485	-1
54.6	49.8506	Inf	0.000545644	24.5188	24.5186	24.5191	32.8163	0.505089	0.473486	10.1481	-1
56	51.3611	Inf	0.000559652	24.5194	24.5231	24.5156	32.8159	0.504977	0.463657	10.1483	-1
57.4	52.7513	Inf	0.000573676	24.5168	24.5079	24.5258	32.8155	0.504571	0.384789	10.1481	-1
58.8	53.969	Inf	0.000587645	24.5175	24.5241	24.5109	32.8153	0.504296	0.393859	10.1482	-1
60.2	55.2105	Inf	0.000601652	24.5342	24.5377	24.5306	32.8156	0.50501	0.320207	10.1479	-1
61.6	57.0864	Inf	0.000615642	24.518	24.5274	24.5086	32.8153	0.505009	0.377601	10.1482	-1
63	58.7112	Inf	0.000629616	24.5193	24.5202	24.5183	32.8156	0.504765	0.383593	10.1481	-1
64.4	60.4295	Inf	0.000643642	24.5126	24.5269	24.4984	32.8161	0.504872	0.444391	10.148	-1
65.8	62.0298	Inf	0.000657626	24.5228	24.5342	24.5114	32.8159	0.504959	0.458921	10.148	-1
67.2	64.0205	Inf	0.000671606	24.5259	24.5233	24.5285	32.8162	0.504812	0.327857	10.148	-1
68.6	65.9864	Inf	0.000685607	24.5288	24.5212	24.5364	32.8152	0.505378	0.588366	10.1483	-1
70	67.6793	Inf	0.000699595	24.5056	24.5117	24.4994	32.816	0.504618	0.568175	10.1482	-1
71.4	69.5502	Inf	0.000713614	24.5197	24.5123	24.5271	32.8158	0.504902	0.643934	10.1479	-1
72.8	71.4762	Inf	0.000727594	24.5042	24.5051	24.5033	32.8164	0.504549	0.635651	10.1481	-1
74.2	73.3041	Inf	0.000741624	24.5155	24.5158	24.5152	32.8167	0.50403	0.629314	10.1478	-1
75.6	75.1392	Inf	0.000755613	24.519	24.5258	24.5122	32.8161	0.503934	0.666506	10.1482	-1
77	76.7432	Inf	0.000769604	24.5144	24.5125	24.5162	32.8162	0.504674	0.59509	10.1477	-1
78.4	78.3863	Inf	0.000783575	24.5125	24.5044	24.5206	32.8166	0.504123	0.746245	10.1486	-1
79.8	79.8324	Inf	0.000797558	24.5089	24.5164	24.5014	32.8177	0.504197	0.752228	10.1481	-1
81.2	81.3881	Inf	0.000811561	24.5148	24.5017	24.5279	32.8166	0.504732	0.620919	10.1478	-1
82.6	82.8988	Inf	0.000825541	24.5081	24.5138	24.5024	32.8175	0.504468	0.690243	10.1478	-1
84	84.2176	Inf	0.000839527	24.5158	24.5042	24.5273	32.818	0.50342	0.629641	10.1477	-1
85.4	85.3139	Inf	0.000853536	24.5183	24.5114	24.5251	32.8165	0.503536	0.696013	10.1481	-1
86.8	86.6405	Inf	0.000867504	24.535	24.5266	24.5434	32.817	0.504776	0.769433	10.1482	-1
88.2	87.7598	Inf	0.000881523	24.5155	24.517	24.514	32.8167	0.505091	0.791003	10.1479	-1
89.6	88.7631	Inf	0.000895509	24.5045	24.5213	24.4877	32.818	0.50465	0.893027	10.1478	-1
91	89.5456	Inf	0.000909524	24.5189	24.5167	24.5211	32.817	0.504853	0.714091	10.1475	-1
92.4	90.1429	Inf	0.000923515	24.5088	24.5001	24.5174	32.8149	0.505342	0.647404	10.1476	-1
93.8	91.2865	Inf	0.00093753	24.5308	24.5364	24.5251	32.8172	0.504395	0.733923	10.1479	-1
95.2	92.1014	Inf	0.000951608	24.5258	24.5261	24.5256	32.8171	0.504849	0.766363	10.1481	-1
96.6	92.7797	Inf	0.000965599	24.5201	24.5263	24.5138	32.8163	0.504418	0.781852	10.1484	-1
98	93.4246	Inf	0.000979631	24.5154	24.524	24.5068	32.8163	0.50437	0.692268	10.1478	-1
99.4	93.8577	Inf	0.000993606	24.5258	24.5308	24.5208	32.8188	0.504031	0.687279	10.1488	-1
100.8	94.1751	Inf	0.00100761	24.5201	24.5214	24.5188	32.8182	0.50438	0.597766	10.1482	-1
102.2	94.6105	Inf	0.00102161	24.5081	24.5022	24.514	32.8178	0.504862	0.679818	10.1482	-1
103.6	94.9746	Inf	0.0010356	24.5259	24.5288	24.523	32.8174	0.505145	0.606888	10.1479	-1
105	95.0218	Inf	0.0010496	24.5212	24.5214	24.5211	32.8177	0.504127	0.585078	10.1477	-1
106.4	95.0866	Inf	0.00106359	24.5168	24.518	24.5156	32.8192	0.505238	0.60852	10.1486	-1
107.8	95.1763	Inf	0.0010776	24.5396	24.5359	24.5432	32.8192	0.503529	0.508481	10.148	-1
109.2	95.2346	Inf	0.00109165	24.51	24.512	24.508	32.8184	0.50512	0.523041	10.1481	-1
110.6	95.2032	Inf	0.00110564	24.5175	24.5156	24.5195	32.8194	0.503273	0.457726	10.148	-1
112	95.2076	Inf	0.00111956	24.4991	24.5033	24.4949	32.8195	0.5034	0.536068	10.1484	-1
113.4	95.1338	Inf	0.00113364	24.5115	24.5107	24.5123	32.8185	0.504182	0.556482	10.1479	-1
114.8	95.1192	Inf	0.00114765	24.5135	24.5225	24.5045	32.819	0.503923	0.405899	10.1481	-1
116.2	95.0006	Inf	0.00116161	24.51	24.508	24.512	32.8195	0.503652	0.508835	10.1481	-1
117.6	94.9136	Inf	0.0011756	24.5183	24.5209	24.5157	32.8197	0.503909	0.403374	10.1481	-1
119	94.7774	Inf	0.00118963	24.5024	24.497	24.5078	32.8205	0.504078	0.483785	10.148	-1
120.4	94.516	Inf	0.00120363	24.5069	24.5099	24.5039	32.8192	0.504135	0.561694	10.1477	-1
121.8	94.154	Inf	0.00121758	24.5092	24.5137	24.5046	32.8181	0.505385	0.517276	10.1484	-1
123.2	93.9657	Inf	0.00123161	24.5153	24.5192	24.5115	32.8203	0.503908	0.521714	10.1483	-1
124.6	93.6113	Inf	0.00124563	24.5191	24.5195	24.5188	32.8195	0.503763	0.466549	10.148	-1
126	93.3307	Inf	0.00125961	24.5206	24.5162	24.5251	32.8195	0.503957	0.599632	10.1481	-1
127.4	93.0077	Inf	0.00127359	24.5213	24.5243	24.5182	32.8202	0.504024	0.481456	10.1483	-1
128.8	92.8966	Inf	0.00128762	24.5093	24.5158	24.5028	32.8202	0.504002	0.48882	10.1483	-1
130.2	92.4791	Inf	0.00130162	24.5128	24.5162	24.5095	32.8197	0.504314	0.550408	10.1484	-1
131.6	92.1649	Inf	0.0013156	24.5191	24.5055	24.5327	32.819	0.503945	0.491521	10.1483	-1
133	91.9161	Inf	0.00132958	24.5116	24.5143	24.5089	32.8218	0.504001	0.538664	10.1485	-1
134.4	91.6012	Inf	0.00134358	24.5231	24.5212	24.5251	32.8204	0.503157	0.494852	10.1483	-1
135.8	91.3039	Inf	0.00135761	24.5094	24.5111	24.5077	32.8199	0.504071	0.608228	10.1484	-1
137.2	91.0315	Inf	0.00137158	24.5062	24.5053	24.5071	32.8205	0.503611	0.60297	10.1486	-1
138.6	90.6547	Inf	0.00138558	24.5142	24.5206	24.5078	32.8212	0.503699	0.548409	10.1483	-1
140	90.421	Inf	0.00139959	24.5067	24.5157	24.4976	32.8196	0.5034	0.614742	10.1484	-1
141.4	90.0465	Inf	0.00141358	24.5091	24.5118	24.5064	32.82	0.503546	0.529148	10.1485	-1
142.8	89.7329	Inf	0.00142756	24.5109	24.5192	24.5026	32.8205	0.504629	0.554632	10.1487	-1
144.2	89.0095	Inf	0.00144158	24.5133	24.5047	24.5219	32.8207	0.503589	0.51921	10.1484	-1
145.6	-1.23702	-1.7766	0.00145556	24.5228	24.5297	24.5159	32.8219	0.504699	0.191047	10.1468	-1
147	-1.17101	-1.80479	0.00146958	24.5296	24.5339	24.5252	32.8213	0.505126	0.246378	10.1465	-1
148.4	-1.23488	-1.79865	0.00148355	24.5206	24.5241	24.517	32.8217	0.505075	0.136257	10.1467	-1
149.8	-1.14436	-1.81092	0.00149757	24.5259	24.5264	24.5253	32.8221	0.505277	0.196252	10.1466	-1
149.85	-1.15727	-1.7947	0.00149809	24.5238	24.5218	24.5258	32.8222	0.505583	0.185678	10.1465	-1

File: Tensile_Test_02.txt
Program Started: Tue, Jul 16, 2024	1:13:32 PM	System: µTS4
Test Notes:

User displacement limits active. Low limit -20.000E-3 m, high limit 20.000E-3 m.
User load limits active. Low limit -1.600E+3 N, high limit 1.600E+3 N.

No closed loop control sensors in this test.

Test Segments:
 1. Ramp in Drive Control, +5.00E-3m Amplitude, 10.00E-6 m/s Speed. Sampling at 20.000 Hz, Lowpass Filter Cutoff of 100.000 Hz

Specimen Thickness (m): 	1.550E-3
Specimen Width (m): 	1.910E-3
Specimen Diameter (m): 	0.000E+0
Specimen Area (m^2): 	2.960E-6
Specimen Length (m): 	5.000E-3

Test Started: Tue, Jul 16, 2024	2:16:47 PM
Time (s)	LCFS1600 (N)	LCW1600 (N)	ECATENC (m)	SpecTemp (C)	AirTemp (C)	OutletTemp (C)	JTemp1600 (C)	GTemp1600 (C)	CUR (A)	Ve (V)	Trigger (#)
0.0000000000E+0	-0.223924	-0.205836	-8.46349e-10	25.1763	25.2851	25.0675	32.8707	0.510711	0.0667131	10.1463	-1
2.8	0.828813	0.867049	2.64149e-05	25.175	25.2836	25.0664	32.8722	0.510963	0.187056	10.1463	-1
5.6	2.06887	1.98462	5.44116e-05	25.1594	25.274	25.0448	32.8694	0.5099	0.215924	10.1466	-1
8.4	3.32471	3.33812	8.23903e-05	25.1636	25.2697	25.0575	32.8711	0.511066	0.140791	10.1469	-1
11.2	4.96758	4.97924	0.000110385	25.1685	25.2805	25.0565	32.8717	0.508659	0.189924	10.1468	-1
14	6.71462	6.78922	0.000138399	25.1648	25.2831	25.0465	32.8725	0.510956	0.22475	10.1466	-1
16.8	8.98109	8.88906	0.000166389	25.1869	25.304	25.0698	32.8703	0.51021	0.25971	10.1466	-1
19.6	11.2889	11.3717	0.0001944	25.1737	25.2874	25.0601	32.8711	0.509922	0.246507	10.147	-1
22.4	14.1552	14.2127	0.00022238	25.1699	25.269	25.0709	32.8725	0.509512	0.304068	10.1468	-1
25.2	17.2425	17.3326	0.000250391	25.1696	25.2952	25.0439	32.8715	0.509609	0.163209	10.1471	-1
28	20.2708	20.3411	0.00027838	25.1753	25.2732	25.0774	32.872	0.508723	0.252613	10.1474	-1
30.8	23.569	23.5711	0.000306344	25.1584	25.2735	25.0433	32.8721	0.50972	0.26445	10.1471	-1
33.6	26.7538	26.7623	0.000334363	25.1708	25.2762	25.0654	32.8714	0.509951	0.269744	10.1477	-1
36.4	30.194	30.271	0.000362368	25.1688	25.2865	25.0512	32.8725	0.508389	0.293036	10.1476	-1
39.2	33.825	Inf	0.000390363	25.1508	25.2718	25.0299	32.8717	0.51038	0.213703	10.1478	-1
42	36.8125	Inf	0.000418274	25.1756	25.2956	25.0557	32.8738	0.509426	0.166734	10.1483	-1
44.8	39.4552	Inf	0.000446277	25.1729	25.2774	25.0685	32.8717	0.509056	0.226057	10.1479	-1
47.6	42.1139	Inf	0.00047427	25.1714	25.2889	25.0538	32.8723	0.50923	0.2998	10.1482	-1
50.4	45.1076	Inf	0.000502256	25.1795	25.283	25.076	32.8727	0.509791	0.31848	10.1481	-1
53.2	47.8586	Inf	0.000530266	25.1738	25.2796	25.0681	32.8717	0.510481	0.314836	10.1484	-1
56	50.8308	Inf	0.000558264	25.168	25.2715	25.0645	32.8722	0.510031	0.360341	10.1484	-1
58.8	53.9601	Inf	0.00058625	25.1719	25.2955	25.0483	32.8733	0.509557	0.255877	10.1481	-1
61.6	57.5005	Inf	0.000614235	25.1693	25.2795	25.059	32.8735	0.509446	0.396786	10.1485	-1
64.4	61.0946	Inf	0.000642241	25.1629	25.2826	25.0433	32.8736	0.509622	0.407408	10.148	-1
67.2	65.1262	Inf	0.00067022	25.1666	25.2766	25.0565	32.8738	0.50993	0.52866	10.148	-1
70	68.9158	Inf	0.000698288	25.1655	25.2773	25.0537	32.8742	0.509934	0.610382	10.1484	-1
72.8	72.1898	Inf	0.000726225	25.1601	25.2656	25.0545	32.8747	0.51012	0.550962	10.1483	-1
75.6	75.4935	Inf	0.000754265	25.1711	25.2818	25.0604	32.8736	0.509753	0.515438	10.1484	-1
78.4	78.3312	Inf	0.000782239	25.1698	25.2808	25.0587	32.8747	0.509482	0.685094	10.1483	-1
81.2	80.4834	Inf	0.000810263	25.1758	25.287	25.0646	32.8739	0.51092	0.610113	10.148	-1
84	83.0727	Inf	0.000838234	25.1696	25.2792	25.0599	32.8739	0.510064	0.671707	10.148	-1
86.8	85.272	Inf	0.000866259	25.1689	25.2729	25.0649	32.8738	0.510056	0.699774	10.148	-1
89.6	86.7856	Inf	0.000894233	25.1713	25.2741	25.0686	32.8749	0.509316	0.62256	10.148	-1
92.4	88.2067	Inf	0.000922255	25.1678	25.2783	25.0574	32.8739	0.510134	0.515317	10.148	-1
95.2	89.0439	Inf	0.000950225	25.1549	25.2547	25.0551	32.875	0.509887	0.562825	10.1481	-1
98	89.934	Inf	0.000978223	25.1673	25.2668	25.0677	32.8748	0.509906	0.560561	10.1481	-1
100.8	90.2117	Inf	0.00100624	25.1828	25.2835	25.0822	32.8744	0.509927	0.45529	10.1482	-1
103.6	90.6312	Inf	0.00103422	25.1686	25.2805	25.0566	32.8745	0.510312	0.514762	10.1482	-1
106.4	90.9013	Inf	0.0010622	25.169	25.272	25.0661	32.8765	0.509681	0.424434	10.1476	-1
109.2	90.9712	Inf	0.00109018	25.1672	25.2679	25.0665	32.876	0.510887	0.481372	10.1476	-1
112	90.7844	Inf	0.00111819	25.1728	25.2849	25.0607	32.8753	0.510498	0.493346	10.1478	-1
114.8	90.3226	Inf	0.00114621	25.1663	25.2796	25.053	32.8749	0.510547	0.505125	10.1478	-1
117.6	89.794	Inf	0.00117419	25.1868	25.292	25.0817	32.8759	0.51062	0.525975	10.1479	-1
120.4	89.2479	Inf	0.00120216	25.1828	25.2872	25.0783	32.8766	0.510224	0.4644	10.1482	-1
123.2	88.8981	Inf	0.00123017	25.1678	25.2751	25.0604	32.8768	0.510939	0.449214	10.1478	-1
126	88.5442	Inf	0.00125815	25.171	25.2818	25.0602	32.8757	0.510019	0.38297	10.1477	-1
128.8	88.3836	Inf	0.00128615	25.1837	25.2828	25.0845	32.8762	0.509855	0.486741	10.1477	-1
131.6	88.0993	Inf	0.00131417	25.1716	25.2752	25.0681	32.8773	0.510864	0.491129	10.1484	-1
134.4	87.97	Inf	0.00134209	25.1651	25.2711	25.0592	32.8773	0.511006	0.407438	10.1478	-1
137.2	87.7605	Inf	0.0013701	25.1765	25.271	25.082	32.8771	0.510824	0.36457	10.1477	-1
140	87.5723	Inf	0.0013981	25.1649	25.2659	25.0639	32.8772	0.509834	0.330445	10.1482	-1
142.8	87.4771	Inf	0.00142606	25.1927	25.3012	25.0843	32.8774	0.510733	0.360905	10.1479	-1
145.6	87.2518	Inf	0.00145406	25.1905	25.2884	25.0926	32.8779	0.510538	0.496201	10.1481	-1
148.4	87.2289	Inf	0.00148208	25.1907	25.2977	25.0836	32.8766	0.511012	0.452446	10.1483	-1
151.2	87.0781	Inf	0.00151006	25.1788	25.2677	25.09	32.876	0.511413	0.463253	10.1479	-1
154	87.1223	Inf	0.00153803	25.1753	25.2798	25.0707	32.8789	0.511196	0.470945	10.1479	-1
156.8	87.0251	Inf	0.00156603	25.1927	25.2908	25.0945	32.8765	0.51096	0.476223	10.1486	-1
159.6	87.2257	Inf	0.00159405	25.1639	25.2725	25.0552	32.8776	0.509635	0.462914	10.1479	-1
162.4	87.2937	Inf	0.0016221	25.1888	25.2909	25.0867	32.8765	0.509932	0.595064	10.1477	-1
165.2	87.577	Inf	0.00165009	25.1841	25.2825	25.0857	32.8791	0.511176	0.554758	10.148	-1
168	87.6373	Inf	0.00167808	25.1948	25.2947	25.0948	32.8781	0.509359	0.457535	10.1481	-1
170.8	87.9212	Inf	0.00170607	25.1793	25.2846	25.0739	32.8783	0.510286	0.50445	10.1476	-1
173.6	88.024	Inf	0.00173406	25.2034	25.3043	25.1026	32.8779	0.509793	0.448828	10.1474	-1
176.4	88.1613	Inf	0.00176204	25.1885	25.2977	25.0793	32.8788	0.5107	0.528162	10.1477	-1
179.2	88.5634	Inf	0.00179006	25.1954	25.2811	25.1096	32.8777	0.510432	0.58676	10.1478	-1
182	88.8286	Inf	0.00181804	25.2037	25.2973	25.1101	32.8804	0.511186	0.548693	10.148	-1
184.8	88.946	Inf	0.00184605	25.1782	25.2633	25.093	32.8787	0.511	0.521563	10.1476	-1
187.6	89.0522	Inf	0.00187402	25.1953	25.3107	25.08	32.8796	0.510732	0.47721	10.1484	-1
190.4	89.1107	Inf	0.00190203	25.1848	25.2891	25.0804	32.8802	0.510546	0.496172	10.1478	-1
193.2	89.1187	Inf	0.00193003	25.1949	25.3005	25.0893	32.8791	0.511635	0.47634	10.1482	-1
196	89.1906	Inf	0.001958	25.1995	25.3016	25.0973	32.8784	0.511756	0.45791	10.1484	-1
198.8	89.457	Inf	0.00198602	25.1879	25.2982	25.0776	32.8779	0.511025	0.508813	10.1481	-1
201.6	89.5162	Inf	0.00201401	25.1905	25.2905	25.0904	32.8793	0.511352	0.373371	10.148	-1
204.4	90.1179	Inf	0.002042	25.1848	25.2893	25.0803	32.8801	0.511036	0.471529	10.1478	-1
207.2	90.3322	Inf	0.00207001	25.184	25.2845	25.0836	32.879	0.510246	0.478336	10.148	-1
210	90.7411	Inf	0.002098	25.1832	25.279	25.0874	32.8803	0.510431	0.481071	10.1477	-1
212.8	90.8023	Inf	0.002126	25.1953	25.2924	25.0982	32.8796	0.51149	0.535799	10.1478	-1
215.6	90.8825	Inf	0.002154	25.206	25.3141	25.0978	32.8795	0.511635	0.475121	10.1477	-1
218.4	90.7623	Inf	0.00218195	25.1782	25.2898	25.0666	32.8788	0.511444	0.869185	10.1479	-1
221.2	90.8188	Inf	0.00220996	25.1807	25.2868	25.0746	32.8792	0.510953	0.884663	10.1479	-1
224	91.0687	Inf	0.00223796	25.1802	25.2869	25.0734	32.8798	0.511065	0.892427	10.1477	-1
226.8	91.3224	Inf	0.00226596	25.1968	25.3045	25.0891	32.8807	0.511899	0.939994	10.148	-1
229.6	91.5732	Inf	0.00229391	25.1919	25.3001	25.0836	32.88	0.51111	0.857808	10.1477	-1
232.4	91.7591	Inf	0.0023219	25.2065	25.3229	25.0902	32.8808	0.511768	0.819686	10.1477	-1
235.2	91.9802	Inf	0.00234985	25.188	25.2827	25.0934	32.8808	0.511646	0.75549	10.1476	-1
238	92.2331	Inf	0.00237785	25.196	25.2949	25.0971	32.8796	0.511506	0.846448	10.1475	-1
240.8	92.6188	Inf	0.00240593	25.2101	25.3257	25.0945	32.8806	0.51104	0.856958	10.1476	-1
243.6	92.8197	Inf	0.00243388	25.1986	25.3079	25.0893	32.8811	0.51184	0.868907	10.1477	-1
246.4	93.092	Inf	0.00246191	25.1949	25.2996	25.0903	32.8795	0.512522	0.926867	10.148	-1
249.2	93.3663	Inf	0.00248993	25.1998	25.2974	25.1022	32.8821	0.510438	0.830578	10.1479	-1
252	93.7059	Inf	0.00251789	25.2033	25.2979	25.1087	32.8821	0.511487	0.880781	10.1478	-1
254.8	94.3265	Inf	0.00254589	25.1882	25.3063	25.0701	32.8811	0.512622	0.992959	10.1478	-1
257.6	94.7282	Inf	0.0025739	25.1936	25.2948	25.0923	32.8801	0.512529	0.97815	10.1476	-1
260.4	95.2625	Inf	0.00260188	25.2113	25.3124	25.1102	32.8805	0.510804	1.02396	10.1478	-1
263.2	95.7312	Inf	0.00262986	25.1909	25.2888	25.0931	32.8824	0.512373	0.953191	10.1475	-1
266	96.1197	Inf	0.00265785	25.1942	25.2991	25.0893	32.8811	0.51189	1.04657	10.1473	-1
268.8	96.3829	Inf	0.00268586	25.1808	25.2883	25.0734	32.8821	0.513158	1.04539	10.1479	-1
271.6	96.7874	Inf	0.00271385	25.1975	25.3072	25.0878	32.881	0.51273	1.23014	10.1476	-1
274.4	97.2261	Inf	0.00274185	25.201	25.3058	25.0963	32.8811	0.512415	1.11289	10.1479	-1
277.2	97.6772	Inf	0.00276984	25.2113	25.3215	25.101	32.882	0.511873	1.09932	10.1476	-1
280	98.0907	Inf	0.00279786	25.2097	25.3086	25.1108	32.8815	0.512496	1.0341	10.1475	-1
282.8	98.4939	Inf	0.00282585	25.2043	25.31	25.0986	32.8805	0.513098	0.932172	10.1475	-1
285.6	98.9501	Inf	0.00285381	25.2107	25.3287	25.0926	32.8806	0.512235	1.01234	10.1475	-1
288.4	99.3501	Inf	0.0028818	25.215	25.3225	25.1075	32.882	0.512723	1.12882	10.1479	-1
291.2	99.5802	Inf	0.00290982	25.2035	25.3011	25.1059	32.8814	0.512834	0.992231	10.1478	-1
294	99.755	Inf	0.00293779	25.1991	25.3045	25.0937	32.8823	0.51238	0.962384	10.1476	-1
296.8	100.031	Inf	0.00296585	25.2127	25.323	25.1023	32.8838	0.513376	0.899687	10.1474	-1
299.6	100.288	Inf	0.00299386	25.207	25.3147	25.0993	32.8822	0.512434	0.827326	10.1477	-1
302.4	100.553	Inf	0.00302183	25.2064	25.2924	25.1204	32.881	0.512383	0.935357	10.1475	-1
305.2	100.897	Inf	0.00304984	25.2037	25.3094	25.098	32.8811	0.513172	1.03258	10.1476	-1
306.8	101.19	Inf	0.00306583	25.2111	25.3161	25.1061	32.88	0.512574	0.945905	10.1478	-1