Folder: MaRCN_Tensile_Ontology/data/ReportRaw/Resin_TXT/Unknown_Resin_15Bi (part 2)

File: Tensile_Test_03.txt
Program Started: Thu, Jul 18, 2024	11:47:51 AM	System: µTS4
Test Notes:

User displacement limits active. Low limit -20.000E-3 m, high limit 20.000E-3 m.
User load limits active. Low limit -1.600E+3 N, high limit 1.600E+3 N.

No closed loop control sensors in this test.

Test Segments:
 1. Ramp in Drive Control, +5.00E-3m Amplitude, 10.00E-6 m/s Speed. Sampling at 20.000 Hz, Lowpass Filter Cutoff of 100.000 Hz

Specimen Thickness (m): 	1.430E-3
Specimen Width (m): 	1.970E-3
Specimen Diameter (m): 	0.000E+0
Specimen Area (m^2): 	2.817E-6
Specimen Length (m): 	5.000E-3

Test Started: Thu, Jul 18, 2024	1:25:05 PM
Time (s)	LCFS1600 (N)	LCW1600 (N)	ECATENC (m)	SpecTemp (C)	AirTemp (C)	OutletTemp (C)	JTemp1600 (C)	GTemp1600 (C)	CUR (A)	Ve (V)	Trigger (#)
0.0000000000E+0	-0.119948	-0.646595	-6.79874e-06	23.6056	23.642	23.5692	32.6305	0.482043	0.128393	10.1443	-1
1.4	0.46811	-0.138523	7.11511e-06	23.5977	23.6305	23.5648	32.6294	0.482005	0.0845466	10.1442	-1
2.8	0.697144	0.133209	2.11162e-05	23.6087	23.634	23.5835	32.6301	0.481077	0.156532	10.1445	-1
4.2	1.03613	0.433663	3.50657e-05	23.5969	23.6169	23.5768	32.6304	0.481337	0.0923589	10.1443	-1
5.6	1.32368	0.757523	4.91063e-05	23.6118	23.6505	23.573	32.6295	0.481865	0.151812	10.1442	-1
7	1.73971	1.11185	6.30939e-05	23.5884	23.6244	23.5524	32.6297	0.481181	0.245626	10.1445	-1
8.4	2.02525	1.48686	7.70954e-05	23.6077	23.6377	23.5778	32.6312	0.482051	0.2003	10.1441	-1
9.8	2.41172	1.86314	9.1049e-05	23.6002	23.6275	23.573	32.6296	0.481028	0.230078	10.1444	-1
11.2	2.87071	2.30655	0.00010508	23.5934	23.6207	23.5662	32.628	0.481698	0.154485	10.1439	-1
12.6	3.51552	2.87018	0.000119074	23.5988	23.6371	23.5604	32.6319	0.482406	0.178262	10.1441	-1
14	4.18898	3.58018	0.00013302	23.611	23.6396	23.5824	32.6289	0.481783	0.193603	10.1441	-1
15.4	4.90811	4.32906	0.000147024	23.5976	23.6234	23.5718	32.631	0.48135	0.132186	10.1445	-1
16.8	5.69441	5.13021	0.000161075	23.6008	23.6331	23.5685	32.631	0.481118	0.223652	10.1448	-1
18.2	6.45601	5.98749	0.000175042	23.5989	23.617	23.5808	32.6312	0.480942	0.14424	10.1445	-1
19.6	7.54502	6.93586	0.000189016	23.594	23.625	23.563	32.6302	0.481664	0.132933	10.1446	-1
21	8.52133	7.94609	0.000203053	23.6059	23.6369	23.5748	32.632	0.480726	0.102725	10.1443	-1
22.4	9.54719	8.98186	0.000217009	23.5985	23.6372	23.5598	32.6315	0.481167	0.140939	10.1447	-1
23.8	10.629	10.1106	0.000231025	23.6015	23.6217	23.5813	32.631	0.480708	0.197929	10.1447	-1
25.2	11.8455	11.281	0.000245005	23.6079	23.6262	23.5897	32.6316	0.480789	0.136329	10.1446	-1
26.6	13.0871	12.5399	0.000259055	23.6078	23.6343	23.5814	32.6322	0.480676	0.201112	10.1448	-1
28	14.3296	13.8528	0.000273033	23.6048	23.6324	23.5771	32.6312	0.480713	0.141062	10.1451	-1
29.4	15.7516	15.2046	0.000287014	23.5907	23.6224	23.5591	32.6304	0.480794	0.161019	10.145	-1
30.8	17.2508	16.6759	0.000300997	23.5911	23.6254	23.5567	32.6324	0.480739	0.210715	10.1449	-1
32.2	18.789	18.2262	0.000315042	23.5938	23.6301	23.5574	32.6314	0.481016	0.208058	10.1453	-1
33.6	20.3923	19.865	0.000328995	23.6074	23.6368	23.5781	32.6319	0.480125	0.306847	10.145	-1
35	21.9852	21.4594	0.00034297	23.5903	23.6152	23.5653	32.633	0.481804	0.241344	10.1454	-1
36.4	23.6467	23.1236	0.000357069	23.5902	23.6143	23.5661	32.6293	0.479814	0.265428	10.1452	-1
37.8	25.3183	24.7362	0.000371004	23.5962	23.6277	23.5648	32.631	0.480982	0.288198	10.1453	-1
39.2	27.0775	26.5011	0.000384978	23.5835	23.6141	23.5529	32.6326	0.480837	0.276032	10.1459	-1
40.6	28.9432	28.3646	0.000398959	23.6014	23.6173	23.5854	32.6329	0.480979	0.337807	10.1464	-1
42	30.8032	30.2013	0.000413021	23.5866	23.6238	23.5494	32.632	0.479442	0.285935	10.1463	-1
43.4	32.4772	Inf	0.000426979	23.6025	23.6276	23.5775	32.6319	0.479636	0.321239	10.146	-1
44.8	34.2556	Inf	0.000440986	23.5867	23.625	23.5485	32.6319	0.480853	0.300649	10.1459	-1
46.2	35.7228	Inf	0.000455	23.5814	23.6197	23.5431	32.6327	0.479378	0.267002	10.1464	-1
47.6	37.6144	Inf	0.000469027	23.581	23.612	23.5499	32.6326	0.480087	0.321232	10.1461	-1
49	38.8361	Inf	0.000482962	23.5915	23.6133	23.5697	32.6329	0.48028	0.25352	10.1462	-1
50.4	40.2348	Inf	0.000496962	23.5898	23.625	23.5546	32.633	0.479637	0.358845	10.1462	-1
51.8	41.7744	Inf	0.000510982	23.6045	23.6383	23.5706	32.6338	0.479704	0.253852	10.146	-1
53.2	42.9516	Inf	0.000524953	23.5989	23.6129	23.5849	32.6315	0.480811	0.174496	10.1459	-1
54.6	44.0389	Inf	0.000538913	23.6051	23.6353	23.5749	32.6324	0.480638	0.25798	10.1463	-1
56	45.0522	Inf	0.00055293	23.6028	23.6331	23.5726	32.6336	0.479934	0.244755	10.1467	-1
57.4	46.3617	Inf	0.000566973	23.5971	23.6171	23.5771	32.6329	0.480417	0.28103	10.1461	-1
58.8	47.7315	Inf	0.000580952	23.6002	23.6329	23.5675	32.6323	0.479849	0.242382	10.1462	-1
60.2	48.8191	Inf	0.000594926	23.5963	23.6228	23.5698	32.6356	0.479299	0.28865	10.1461	-1
61.6	50.1009	Inf	0.000608933	23.616	23.6416	23.5904	32.6323	0.480018	0.248982	10.1462	-1
63	51.1744	Inf	0.000622981	23.603	23.6111	23.5948	32.6327	0.481108	0.180018	10.146	-1
64.4	52.4105	Inf	0.000636931	23.6106	23.6422	23.579	32.6347	0.479587	0.283056	10.146	-1
65.8	53.7276	Inf	0.000650901	23.612	23.6325	23.5914	32.6334	0.479671	0.257689	10.146	-1
67.2	54.9799	Inf	0.000664942	23.6025	23.6327	23.5723	32.6333	0.479995	0.328148	10.1465	-1
68.6	56.1477	Inf	0.000678903	23.6194	23.6353	23.6035	32.6349	0.479655	0.271703	10.1462	-1
70	57.5349	Inf	0.000692916	23.6108	23.6313	23.5903	32.6324	0.479471	0.266955	10.146	-1
71.4	59.1954	Inf	0.000706883	23.6101	23.6462	23.5739	32.633	0.479343	0.320043	10.1461	-1
72.8	60.6618	Inf	0.000720892	23.6084	23.6367	23.5801	32.6341	0.48016	0.275696	10.1462	-1
74.2	62.1599	Inf	0.000734892	23.6075	23.6437	23.5712	32.6341	0.480442	0.422081	10.146	-1
75.6	63.3983	Inf	0.000748865	23.6062	23.6385	23.5738	32.6334	0.479243	0.376749	10.1463	-1
77	64.9144	Inf	0.000762902	23.6147	23.6423	23.5871	32.6351	0.478979	0.34604	10.1462	-1
78.4	66.3748	Inf	0.000776875	23.5958	23.6222	23.5694	32.6337	0.479851	0.382891	10.1462	-1
79.8	67.5805	Inf	0.000790876	23.6038	23.6284	23.5792	32.6341	0.479737	0.33054	10.1463	-1
81.2	68.9535	Inf	0.000804866	23.5964	23.6292	23.5635	32.6341	0.47939	0.414883	10.1461	-1
82.6	70.3752	Inf	0.000818875	23.607	23.637	23.577	32.6343	0.479962	0.369311	10.1463	-1
84	71.5485	Inf	0.000832896	23.5972	23.6137	23.5808	32.6337	0.480134	0.429383	10.1461	-1
85.4	72.7353	Inf	0.000846882	23.5951	23.6201	23.5701	32.6358	0.479943	0.402456	10.1463	-1
86.8	73.8238	Inf	0.000860858	23.6	23.6296	23.5703	32.6344	0.480194	0.325962	10.1461	-1
88.2	75.0161	Inf	0.000874845	23.5953	23.6194	23.5713	32.6349	0.479789	0.420009	10.1462	-1
89.6	76.1368	Inf	0.000888849	23.6153	23.6475	23.5831	32.6347	0.480464	0.443113	10.1461	-1
91	77.2255	Inf	0.000902859	23.5961	23.6142	23.578	32.6338	0.479903	0.503175	10.1459	-1
92.4	78.2497	Inf	0.000916816	23.6078	23.6391	23.5764	32.6341	0.480492	0.468785	10.1463	-1
93.8	79.1366	Inf	0.000930845	23.6034	23.6402	23.5666	32.6349	0.479881	0.436963	10.1462	-1
95.2	80.0957	Inf	0.000944854	23.6073	23.6436	23.571	32.6354	0.480038	0.482703	10.1461	-1
96.6	80.9307	Inf	0.000958829	23.5983	23.6256	23.5711	32.6355	0.479881	0.420087	10.1459	-1
98	81.7953	Inf	0.000972821	23.6106	23.6304	23.5908	32.635	0.479732	0.517838	10.1463	-1
99.4	82.6169	Inf	0.000986863	23.608	23.6312	23.5848	32.6353	0.480878	0.487397	10.1461	-1
100.8	83.3461	Inf	0.00100092	23.6138	23.6434	23.5842	32.6353	0.480422	0.475363	10.1459	-1
102.2	83.9923	Inf	0.00101496	23.6038	23.6339	23.5737	32.6362	0.479616	0.461684	10.1462	-1
103.6	84.663	Inf	0.00102894	23.6029	23.619	23.5868	32.6348	0.480159	0.433602	10.1461	-1
105	85.2135	Inf	0.00104295	23.6196	23.6438	23.5955	32.6364	0.480571	0.548489	10.146	-1
106.4	85.564	Inf	0.00105694	23.6225	23.652	23.5929	32.6357	0.480839	0.483271	10.1462	-1
107.8	86.0731	Inf	0.00107096	23.6374	23.672	23.6028	32.6358	0.479978	0.563904	10.1462	-1
109.2	86.5254	Inf	0.00108491	23.619	23.6456	23.5924	32.6356	0.479908	0.538987	10.1457	-1
110.6	86.9286	Inf	0.00109893	23.6206	23.6503	23.5909	32.6359	0.480271	0.493556	10.1462	-1
112	87.2754	Inf	0.00111293	23.6064	23.6459	23.567	32.636	0.479893	0.550759	10.1459	-1
113.4	87.4784	Inf	0.0011269	23.6124	23.6434	23.5814	32.6361	0.480295	0.503615	10.1461	-1
114.8	87.8369	Inf	0.00114092	23.6174	23.6365	23.5983	32.6354	0.480752	0.552872	10.146	-1
116.2	87.908	Inf	0.0011549	23.6146	23.641	23.5883	32.636	0.480652	0.55051	10.1462	-1
117.6	88.1954	Inf	0.00116892	23.6135	23.6462	23.5808	32.6365	0.480471	0.53001	10.146	-1
119	88.2199	Inf	0.0011829	23.6173	23.6464	23.5883	32.6353	0.480609	0.52495	10.1463	-1
120.4	88.324	Inf	0.0011969	23.6103	23.6488	23.5717	32.6374	0.480877	0.426414	10.1462	-1
121.8	88.3809	Inf	0.00121089	23.6075	23.6338	23.5813	32.6363	0.479414	0.529953	10.1462	-1
123.2	88.4767	Inf	0.00122489	23.6189	23.6507	23.587	32.637	0.479763	0.513908	10.1461	-1
124.6	88.4904	Inf	0.0012389	23.6088	23.6355	23.5822	32.6375	0.480188	0.504558	10.146	-1
126	88.4891	Inf	0.0012529	23.6064	23.6341	23.5788	32.6379	0.480874	0.504661	10.1461	-1
127.4	88.6421	Inf	0.00126689	23.6137	23.6425	23.585	32.6359	0.480625	0.422907	10.1459	-1
128.8	88.3757	Inf	0.00128088	23.6129	23.6359	23.5899	32.637	0.480495	0.439585	10.1459	-1
130.2	88.4206	Inf	0.00129487	23.6061	23.6263	23.5859	32.6374	0.479518	0.368741	10.1464	-1
131.6	88.8694	Inf	0.00130887	23.6156	23.6389	23.5923	32.6367	0.480348	0.515048	10.1459	-1
133	88.969	Inf	0.00132288	23.6021	23.6176	23.5867	32.637	0.479738	0.576267	10.1461	-1
134.4	88.8157	Inf	0.0013369	23.5986	23.6266	23.5707	32.6368	0.479883	0.52698	10.1455	-1
135.8	88.8276	Inf	0.00135087	23.6096	23.6354	23.5838	32.6379	0.480859	0.591154	10.1459	-1
137.2	88.7101	Inf	0.00136487	23.6024	23.6133	23.5916	32.6359	0.480668	0.520986	10.1457	-1
138.6	88.7424	Inf	0.00137886	23.6237	23.6393	23.6082	32.6377	0.480102	0.616637	10.1461	-1
140	88.3445	Inf	0.00139287	23.6226	23.6494	23.5957	32.6359	0.479683	0.619622	10.1459	-1
141.4	88.2795	Inf	0.00140686	23.6079	23.6369	23.579	32.6356	0.480325	0.676931	10.1461	-1
142.8	88.0415	Inf	0.00142084	23.6163	23.6467	23.586	32.6382	0.481026	0.739563	10.1462	-1
144.2	88.0944	Inf	0.00143486	23.6251	23.6542	23.5961	32.6373	0.48073	0.61316	10.1458	-1
145.6	87.7273	Inf	0.00144889	23.6128	23.6293	23.5962	32.6373	0.480689	0.728607	10.1461	-1
147	87.5795	Inf	0.00146283	23.6006	23.6221	23.5792	32.6386	0.480094	0.659926	10.146	-1
148.4	87.3353	Inf	0.00147684	23.6327	23.6674	23.5981	32.6377	0.479615	0.672209	10.1459	-1
149.8	87.1719	Inf	0.00149084	23.6144	23.653	23.5758	32.6368	0.480867	0.764976	10.1461	-1
151.2	-0.299834	-0.63052	0.00150485	23.6182	23.6404	23.5959	32.6391	0.481099	0.237923	10.1442	-1
152.6	-0.302722	-0.662369	0.00151882	23.6306	23.6623	23.5989	32.6396	0.481387	0.212997	10.1442	-1
153.65	-0.289126	-0.657953	0.00152933	23.6358	23.6576	23.6139	32.6392	0.481008	0.101061	10.1444	-1