Folder: MaRCN_Tensile_Ontology/data/ReportRaw/Resin_TXT/Unknown_Resin (part 3)

File: Tensile_Test_05.txt
Program Started: Tue, Jul 16, 2024	1:13:32 PM	System: µTS4
Test Notes:

User displacement limits active. Low limit -20.000E-3 m, high limit 20.000E-3 m.
User load limits active. Low limit -1.600E+3 N, high limit 1.600E+3 N.

No closed loop control sensors in this test.

Test Segments:
 1. Ramp in Drive Control, +5.00E-3m Amplitude, 10.00E-6 m/s Speed. Sampling at 20.000 Hz, Lowpass Filter Cutoff of 100.000 Hz

Specimen Thickness (m): 	1.550E-3
Specimen Width (m): 	1.910E-3
Specimen Diameter (m): 	0.000E+0
Specimen Area (m^2): 	2.960E-6
Specimen Length (m): 	5.000E-3

Test Started: Tue, Jul 16, 2024	2:57:26 PM
Time (s)	LCFS1600 (N)	LCW1600 (N)	ECATENC (m)	SpecTemp (C)	AirTemp (C)	OutletTemp (C)	JTemp1600 (C)	GTemp1600 (C)	CUR (A)	Ve (V)	Trigger (#)
0.0000000000E+0	0.0502537	-0.0173593	-2.57587e-11	25.1337	25.1722	25.0953	33.0062	0.506713	0.0805993	10.1476	-1
2.05	0.649283	0.609526	1.97795e-05	25.1321	25.1698	25.0943	33.0059	0.506748	0.11214	10.1477	-1
4.1	1.23495	1.24747	4.02833e-05	25.1668	25.2187	25.1148	33.0076	0.505962	0.118534	10.148	-1
6.15	1.98126	1.95446	6.07712e-05	25.148	25.1972	25.0988	33.0069	0.506136	0.141882	10.1478	-1
8.2	2.81799	2.77095	8.12752e-05	25.1454	25.1851	25.1056	33.0073	0.50633	0.195901	10.148	-1
10.25	3.73483	3.69161	0.000101771	25.1388	25.1893	25.0883	33.0077	0.50611	0.169218	10.1476	-1
12.3	4.87284	4.79656	0.000122251	25.1306	25.1886	25.0726	33.0072	0.505677	0.199882	10.1479	-1
14.35	5.85993	5.78516	0.000142736	25.1404	25.1957	25.085	33.0074	0.506444	0.224283	10.1476	-1
16.4	7.25925	7.14271	0.000163241	25.1554	25.1991	25.1117	33.0074	0.506405	0.162007	10.1479	-1
18.45	8.66475	8.62925	0.00018375	25.1403	25.1985	25.0821	33.006	0.506849	0.129659	10.148	-1
20.5	10.2666	10.2339	0.000204279	25.1395	25.1921	25.0869	33.0069	0.506162	0.136456	10.148	-1
22.55	11.9287	11.9128	0.00022478	25.1382	25.1956	25.0808	33.008	0.507105	0.188935	10.148	-1
24.6	13.6164	13.5785	0.000245303	25.1406	25.1901	25.0911	33.0079	0.50565	0.232709	10.1484	-1
26.65	15.2554	15.2259	0.000265778	25.1397	25.1873	25.0921	33.0071	0.506241	0.237247	10.1484	-1
28.7	17.1352	16.9829	0.000286278	25.1248	25.1792	25.0703	33.0064	0.506502	0.212766	10.1492	-1
30.75	18.8352	18.8633	0.000306772	25.1343	25.183	25.0857	33.0064	0.506403	0.238787	10.1481	-1
32.8	21.0264	21.0101	0.000327286	25.1343	25.1852	25.0835	33.0063	0.506249	0.236369	10.1484	-1
34.85	23.2238	23.1889	0.000347776	25.1406	25.2037	25.0775	33.0058	0.506436	0.222043	10.1487	-1
36.9	25.4657	25.3878	0.000368269	25.1261	25.1573	25.0948	33.0054	0.505626	0.232885	10.1489	-1
38.95	27.9024	27.836	0.000388759	25.1286	25.1772	25.08	33.006	0.50668	0.255434	10.1491	-1
41	29.6982	29.7305	0.000409247	25.136	25.1833	25.0886	33.0088	0.505345	0.340105	10.1493	-1
43.05	32.0628	Inf	0.00042975	25.1274	25.1709	25.0839	33.0077	0.505838	0.283069	10.1495	-1
45.1	34.3323	Inf	0.000450229	25.1357	25.187	25.0844	33.0079	0.506567	0.239129	10.149	-1
47.15	36.4444	Inf	0.000470744	25.1285	25.1755	25.0816	33.0078	0.505888	0.28065	10.1492	-1
49.2	38.5777	Inf	0.000491231	25.1298	25.1793	25.0804	33.0099	0.505654	0.231571	10.1494	-1
51.25	40.6827	Inf	0.000511761	25.1269	25.1784	25.0755	33.0072	0.504958	0.241052	10.1492	-1
53.3	42.3997	Inf	0.000532246	25.1283	25.1906	25.066	33.0066	0.505462	0.251156	10.1495	-1
55.35	44.4355	Inf	0.000552731	25.126	25.1686	25.0834	33.0074	0.504515	0.290784	10.1496	-1
57.4	46.6788	Inf	0.000573229	25.1147	25.1635	25.0658	33.0076	0.505946	0.30999	10.15	-1
59.45	48.4564	Inf	0.0005937	25.1156	25.1604	25.0707	33.0094	0.504845	0.226402	10.15	-1
61.5	50.6099	Inf	0.000614191	25.1318	25.1791	25.0846	33.0071	0.504836	0.222898	10.1496	-1
63.55	53.2377	Inf	0.000634693	25.1161	25.1738	25.0584	33.0056	0.505189	0.232984	10.1496	-1
65.6	55.377	Inf	0.00065522	25.129	25.1704	25.0876	33.0071	0.505459	0.344768	10.1495	-1
67.65	57.9745	Inf	0.000675705	25.1254	25.1712	25.0796	33.0086	0.504757	0.32072	10.1494	-1
69.7	60.628	Inf	0.000696189	25.1407	25.1755	25.1059	33.0074	0.505098	0.418144	10.1496	-1
71.75	63.2351	Inf	0.00071668	25.1375	25.1896	25.0854	33.0084	0.505457	0.379973	10.1495	-1
73.8	66.1633	Inf	0.000737168	25.1251	25.1752	25.075	33.0064	0.505303	0.410213	10.1497	-1
75.85	68.7134	Inf	0.000757687	25.1239	25.1718	25.076	33.0082	0.505285	0.36473	10.1502	-1
77.9	71.3812	Inf	0.000778184	25.1214	25.1605	25.0822	33.0092	0.50487	0.273923	10.1499	-1
79.95	74.0148	Inf	0.00079868	25.1338	25.1759	25.0916	33.0092	0.505529	0.40197	10.1497	-1
82	76.8591	Inf	0.000819187	25.1145	25.1651	25.0639	33.0082	0.505779	0.478557	10.1494	-1
84.05	79.4931	Inf	0.00083968	25.1253	25.1708	25.0798	33.0085	0.505417	0.581366	10.1497	-1
86.1	81.889	Inf	0.00086017	25.1206	25.1689	25.0724	33.0075	0.504998	0.539675	10.1499	-1
88.15	84.2703	Inf	0.000880637	25.127	25.1672	25.0868	33.0084	0.504986	0.542364	10.1495	-1
90.2	86.4101	Inf	0.000901156	25.1201	25.1627	25.0775	33.0078	0.505794	0.566584	10.1498	-1
92.25	88.3381	Inf	0.000921598	25.1125	25.142	25.0831	33.009	0.505121	0.504904	10.1496	-1
94.3	90.4137	Inf	0.000942089	25.1146	25.1567	25.0726	33.0086	0.503996	0.498396	10.1497	-1
96.35	91.9694	Inf	0.000962581	25.1123	25.1476	25.0771	33.0072	0.504181	0.577449	10.1494	-1
98.4	93.3522	Inf	0.000983088	25.128	25.1731	25.083	33.0098	0.504391	0.631665	10.1493	-1
100.45	94.5758	Inf	0.00100356	25.1178	25.1601	25.0755	33.0079	0.504528	0.612992	10.1495	-1
102.5	95.6529	Inf	0.00102406	25.1103	25.1606	25.0599	33.0086	0.505129	0.629379	10.1497	-1
104.55	96.4576	Inf	0.00104456	25.1232	25.1782	25.0683	33.0093	0.505431	0.669851	10.1497	-1
106.6	97.0727	Inf	0.00106505	25.1117	25.1615	25.0619	33.0094	0.505423	0.615807	10.1496	-1
108.65	97.4809	Inf	0.00108554	25.1248	25.1772	25.0725	33.0085	0.505457	0.602386	10.1497	-1
110.7	97.6667	Inf	0.0011061	25.114	25.1607	25.0672	33.0096	0.505265	0.592115	10.1496	-1
112.75	97.8168	Inf	0.00112658	25.1251	25.1664	25.0839	33.0094	0.505354	0.658264	10.1499	-1
114.8	97.6894	Inf	0.0011471	25.1208	25.156	25.0857	33.0095	0.505753	0.620962	10.1496	-1
116.85	97.4437	Inf	0.00116759	25.1125	25.1598	25.0653	33.0079	0.505728	0.596871	10.1498	-1
118.9	97.0682	Inf	0.00118807	25.1348	25.1776	25.0919	33.0082	0.504432	0.54014	10.1499	-1
120.95	96.6253	Inf	0.00120858	25.1116	25.1698	25.0534	33.0095	0.506106	0.470036	10.15	-1
123	96.4627	Inf	0.00122908	25.1176	25.1633	25.072	33.0097	0.505457	0.473779	10.1503	-1
125.05	96.2104	Inf	0.00124959	25.1365	25.1897	25.0833	33.01	0.504594	0.482546	10.1496	-1
127.1	95.9475	Inf	0.0012701	25.1127	25.1445	25.081	33.012	0.50506	0.481016	10.1499	-1
129.15	95.685	Inf	0.00129055	25.1178	25.1582	25.0775	33.0102	0.503852	0.487843	10.1494	-1
131.2	95.1376	Inf	0.00131107	25.1162	25.1685	25.0639	33.0102	0.506731	0.56285	10.1493	-1
133.25	94.7795	Inf	0.00133154	25.1234	25.1669	25.0798	33.0109	0.506198	0.54279	10.1501	-1
135.3	94.0968	Inf	0.00135204	25.1132	25.1531	25.0732	33.0092	0.504148	0.457502	10.1498	-1
137.35	93.5621	Inf	0.00137255	25.1155	25.157	25.0739	33.0091	0.505256	0.436547	10.1494	-1
139.4	93.1252	Inf	0.00139306	25.1154	25.1652	25.0656	33.0089	0.505763	0.509259	10.1495	-1
141.45	92.7368	Inf	0.00141354	25.1209	25.1537	25.088	33.0123	0.506038	0.527796	10.1499	-1
143.5	92.4974	Inf	0.00143405	25.125	25.1709	25.0791	33.0102	0.506187	0.485445	10.1495	-1
145.55	92.2254	Inf	0.00145453	25.1266	25.1615	25.0917	33.0109	0.506099	0.57738	10.1496	-1
147.6	92.0473	Inf	0.00147503	25.1092	25.1459	25.0725	33.0106	0.505624	0.578788	10.1498	-1
149.65	91.648	Inf	0.00149551	25.1131	25.1637	25.0625	33.0122	0.504717	0.545925	10.1496	-1
151.7	91.4753	Inf	0.00151603	25.1211	25.1785	25.0637	33.0115	0.506993	0.495191	10.1497	-1
153.75	91.3196	Inf	0.00153653	25.1133	25.168	25.0586	33.0106	0.50613	0.490721	10.1494	-1
155.8	91.3154	Inf	0.00155702	25.1046	25.1479	25.0613	33.0115	0.505288	0.584897	10.1498	-1
157.85	91.1748	Inf	0.00157753	25.1085	25.1501	25.0669	33.0097	0.505788	0.599212	10.1495	-1
159.9	91.0567	Inf	0.00159799	25.1092	25.1455	25.0728	33.0124	0.505668	0.579982	10.1498	-1
161.95	90.9401	Inf	0.00161847	25.1154	25.1572	25.0736	33.0111	0.506171	0.545225	10.1493	-1
164	90.8881	Inf	0.001639	25.125	25.1775	25.0725	33.0111	0.506125	0.549977	10.1495	-1
166.05	90.7587	Inf	0.00165949	25.1145	25.1688	25.0603	33.0106	0.504763	0.588268	10.1495	-1
168.1	90.7181	Inf	0.00167999	25.1103	25.1524	25.0683	33.0106	0.505017	0.49734	10.1495	-1
170.15	90.6899	Inf	0.00170049	25.1141	25.1527	25.0755	33.0119	0.505181	0.56044	10.1499	-1
172.2	90.784	Inf	0.001721	25.1224	25.1581	25.0867	33.0108	0.506272	0.593479	10.1494	-1
174.25	90.7623	Inf	0.00174147	25.1241	25.1819	25.0662	33.0116	0.505847	0.651167	10.1496	-1
176.3	90.7005	Inf	0.00176198	25.1234	25.1685	25.0783	33.0133	0.506077	0.584731	10.1499	-1
178.35	90.9657	Inf	0.00178244	25.1076	25.1596	25.0555	33.0115	0.50561	0.488136	10.1496	-1
180.4	90.9791	Inf	0.00180293	25.1111	25.151	25.0712	33.0099	0.505811	0.52334	10.1494	-1
182.45	91.0064	Inf	0.00182344	25.1292	25.1738	25.0846	33.0118	0.506546	0.519831	10.1493	-1
184.5	91.2422	Inf	0.00184393	25.1204	25.1594	25.0814	33.0118	0.50597	0.541822	10.1489	-1
186.55	91.3041	Inf	0.00186441	25.1151	25.155	25.0752	33.0108	0.506766	0.556197	10.1493	-1
188.6	91.3736	Inf	0.00188489	25.123	25.1645	25.0815	33.0121	0.505279	0.545159	10.1494	-1
190.65	91.5818	Inf	0.00190539	25.1186	25.1527	25.0846	33.0128	0.506445	0.582416	10.1494	-1
192.7	91.7958	Inf	0.00192589	25.1252	25.1639	25.0866	33.0139	0.506333	0.458096	10.1494	-1
194.75	92.1038	Inf	0.00194636	25.107	25.1559	25.0581	33.0118	0.505649	0.403252	10.1492	-1
196.8	92.1703	Inf	0.00196686	25.115	25.1604	25.0696	33.0125	0.505859	0.427484	10.1492	-1
198.85	92.329	Inf	0.00198736	25.0947	25.1387	25.0507	33.0131	0.5055	0.444007	10.1494	-1
200.9	92.5391	Inf	0.00200786	25.1151	25.1615	25.0688	33.0126	0.506017	0.482071	10.1495	-1
202.95	92.6801	Inf	0.00202836	25.1137	25.1477	25.0797	33.0118	0.505967	0.495355	10.1494	-1
205	92.8331	Inf	0.00204884	25.1041	25.15	25.0583	33.0127	0.506152	0.488612	10.1492	-1
207.05	93.0476	Inf	0.00206933	25.1073	25.1487	25.0658	33.0129	0.506796	0.497469	10.1493	-1
209.1	93.0213	Inf	0.00208988	25.1012	25.1555	25.0469	33.0123	0.506065	0.447027	10.1495	-1
211.15	93.0724	Inf	0.00211036	25.1189	25.1661	25.0717	33.0131	0.505869	0.358138	10.1495	-1
213.2	93.0939	Inf	0.00213088	25.0988	25.1439	25.0536	33.013	0.50615	0.441006	10.1495	-1
215.25	92.9452	Inf	0.00215137	25.1087	25.1561	25.0613	33.0115	0.506449	0.488598	10.1495	-1
217.3	93.0072	Inf	0.00217188	25.1127	25.1605	25.065	33.0123	0.505427	0.498208	10.1496	-1
219.35	-0.00407491	-0.600101	0.00219234	25.1218	25.1595	25.0842	33.0147	0.507267	0.169904	10.148	-1
221.4	0.04486	-0.649279	0.00221288	25.1169	25.1642	25.0696	33.0147	0.507194	0.135228	10.1479	-1
223.45	0.031104	-0.639848	0.00223337	25.1202	25.1609	25.0794	33.0141	0.508038	0.136354	10.1479	-1
224.8	-0.0141523	-0.650713	0.00224686	25.1193	25.161	25.0776	33.0137	0.507717	0.185803	10.148	-1