Folder: MaRCN_Tensile_Ontology/data/ReportRaw/Resin_TXT/V4_Resin

Note: README.md
# MaRCN_Tensile_Ontology
 Exercise on FAIR Tensile data under RDF files

File: Tensile_Test_01.txt
Program Started: Tue, Jul 16, 2024	1:13:32 PM	System: µTS4
Test Notes:

User displacement limits active. Low limit -20.000E-3 m, high limit 20.000E-3 m.
User load limits active. Low limit -1.600E+3 N, high limit 1.600E+3 N.

No closed loop control sensors in this test.

Test Segments:
 1. Ramp in Drive Control, +5.00E-3m Amplitude, 10.00E-6 m/s Speed. Sampling at 20.000 Hz, Lowpass Filter Cutoff of 100.000 Hz

Specimen Thickness (m): 	1.550E-3
Specimen Width (m): 	1.910E-3
Specimen Diameter (m): 	0.000E+0
Specimen Area (m^2): 	2.960E-6
Specimen Length (m): 	5.000E-3

Test Started: Tue, Jul 16, 2024	1:37:54 PM
Time (s)	LCFS1600 (N)	LCW1600 (N)	ECATENC (m)	SpecTemp (C)	AirTemp (C)	OutletTemp (C)	JTemp1600 (C)	GTemp1600 (C)	CUR (A)	Ve (V)	Trigger (#)
0.0000000000E+0	0.0682859	0.00223728	-2.41821e-10	24.4964	24.4721	24.5207	32.7869	0.505608	0.0766752	10.1463	-1
2.15	2.88984	2.83568	2.11179e-05	24.489	24.47	24.508	32.7861	0.505441	0.158745	10.1468	-1
4.3	5.17785	5.178	4.26167e-05	24.5076	24.4823	24.533	32.7876	0.505727	0.13251	10.1469	-1
6.45	8.00185	8.11266	6.40842e-05	24.5015	24.4801	24.5229	32.7862	0.505107	0.121527	10.1469	-1
8.6	11.4391	11.4351	8.55681e-05	24.4924	24.4672	24.5177	32.7871	0.504608	0.185223	10.1467	-1
10.75	15.4819	15.3521	0.000107073	24.4933	24.4585	24.5281	32.7855	0.504806	0.147337	10.1468	-1
12.9	19.6422	19.5468	0.000128618	24.487	24.4571	24.5168	32.7855	0.5044	0.20607	10.1472	-1
15.05	23.7188	23.7162	0.00015006	24.4947	24.4664	24.5231	32.7874	0.505496	0.212235	10.1473	-1
17.2	27.864	27.8499	0.000171592	24.4858	24.47	24.5016	32.7868	0.505167	0.313452	10.1475	-1
19.35	31.5935	Inf	0.000193072	24.5082	24.4827	24.5336	32.7861	0.504725	0.249525	10.1474	-1
21.5	34.9778	Inf	0.000214567	24.4899	24.4601	24.5197	32.7873	0.504177	0.285014	10.1479	-1
23.65	37.8345	Inf	0.000236044	24.4782	24.4456	24.5108	32.787	0.504785	0.300442	10.1476	-1
25.8	41.1126	Inf	0.000257559	24.4998	24.4741	24.5255	32.7874	0.504269	0.261253	10.148	-1
27.95	44.9242	Inf	0.000279066	24.4953	24.4629	24.5278	32.7864	0.504887	0.227641	10.1479	-1
30.1	48.4659	Inf	0.000300557	24.4715	24.4409	24.502	32.7881	0.504818	0.226777	10.1483	-1
32.25	52.4779	Inf	0.000322046	24.493	24.4734	24.5127	32.7861	0.504602	0.32678	10.1478	-1
34.4	56.4175	Inf	0.00034356	24.4871	24.4724	24.5018	32.7873	0.505557	0.308823	10.1483	-1
36.55	60.4248	Inf	0.000365083	24.4852	24.4568	24.5136	32.7884	0.504624	0.323604	10.1479	-1
38.7	64.7721	Inf	0.00038654	24.501	24.4738	24.5282	32.7885	0.504596	0.394654	10.1479	-1
40.85	69.5125	Inf	0.000408037	24.4966	24.4694	24.5238	32.7881	0.505437	0.527417	10.1479	-1
43	74.2377	Inf	0.000429524	24.4851	24.4619	24.5083	32.788	0.504495	0.573097	10.148	-1
45.15	79.1148	Inf	0.000451009	24.5088	24.4915	24.526	32.7874	0.504069	0.607181	10.1482	-1
47.3	83.7542	Inf	0.000472499	24.5005	24.4731	24.5279	32.7875	0.503399	0.588646	10.1478	-1
49.45	88.6289	Inf	0.000494006	24.4762	24.443	24.5094	32.7894	0.50479	0.666134	10.1475	-1
51.6	93.3946	Inf	0.000515497	24.4919	24.4751	24.5087	32.789	0.504533	0.703658	10.1474	-1
53.75	98.2429	Inf	0.000537	24.4929	24.475	24.5109	32.7876	0.505049	0.685685	10.1474	-1
55.9	103.096	Inf	0.000558497	24.4681	24.4515	24.4848	32.7893	0.505883	0.72912	10.1476	-1
58.05	107.773	Inf	0.000579979	24.5009	24.4722	24.5296	32.7898	0.504697	0.823435	10.1473	-1
60.2	112.705	Inf	0.00060149	24.5048	24.4976	24.512	32.7887	0.504372	0.817225	10.1474	-1
62.35	117.471	Inf	0.000622994	24.4879	24.4606	24.5152	32.7899	0.505947	0.78775	10.1476	-1
64.5	121.993	Inf	0.000644472	24.5003	24.4704	24.5303	32.7877	0.505722	0.937727	10.147	-1
66.65	126.63	Inf	0.000665951	24.4864	24.4604	24.5125	32.7893	0.505432	0.878507	10.148	-1
68.8	130.855	Inf	0.000687465	24.4844	24.4644	24.5045	32.791	0.504118	0.834197	10.1474	-1
70.95	135.225	Inf	0.000708963	24.4911	24.4682	24.514	32.7885	0.504068	0.815355	10.1474	-1
73.1	139.057	Inf	0.000730398	24.4907	24.4684	24.5131	32.789	0.504661	0.701568	10.1474	-1
75.25	142.949	Inf	0.000751874	24.5002	24.4722	24.5282	32.7895	0.504103	0.757495	10.1475	-1
77.4	146.713	Inf	0.000773388	24.4895	24.4605	24.5185	32.7887	0.504397	0.838312	10.1474	-1
79.55	150.16	Inf	0.000794888	24.4989	24.4794	24.5183	32.7895	0.505447	0.842045	10.1478	-1
81.7	153.354	Inf	0.000816385	24.5006	24.4771	24.524	32.79	0.503831	0.867828	10.1475	-1
83.85	156.454	Inf	0.000837876	24.4933	24.4777	24.5088	32.7904	0.504635	1.03007	10.1476	-1
86	159.095	Inf	0.00085936	24.4951	24.4744	24.5157	32.7891	0.50396	0.977183	10.1479	-1
88.15	161.467	Inf	0.000880864	24.49	24.4726	24.5075	32.7905	0.504358	1.01879	10.1476	-1
90.3	163.554	Inf	0.000902342	24.5016	24.4703	24.5329	32.7908	0.504142	1.08399	10.1478	-1
92.45	165.272	Inf	0.000923849	24.4994	24.4825	24.5164	32.7915	0.505047	1.01166	10.1474	-1
94.6	166.864	Inf	0.00094535	24.4983	24.4757	24.5209	32.7902	0.505275	1.01776	10.1481	-1
96.75	168.247	Inf	0.000966899	24.5036	24.4781	24.5291	32.791	0.504271	1.02409	10.1481	-1
98.9	169.223	Inf	0.000988439	24.5076	24.4826	24.5326	32.791	0.504727	1.10566	10.1482	-1
101.05	169.835	Inf	0.00100993	24.4847	24.4709	24.4985	32.7892	0.503626	1.10322	10.1474	-1
103.2	170.375	Inf	0.00103143	24.4868	24.4645	24.5091	32.7904	0.505471	1.03759	10.1478	-1
105.35	170.514	Inf	0.00105293	24.513	24.4889	24.5371	32.7911	0.50411	1.07458	10.1477	-1
107.5	170.574	Inf	0.0010744	24.4912	24.4662	24.5162	32.7917	0.503822	1.11195	10.1477	-1
109.65	170.367	Inf	0.00109591	24.4988	24.4735	24.524	32.7914	0.503563	1.05624	10.1475	-1
111.8	169.778	Inf	0.00111734	24.4904	24.4634	24.5174	32.7914	0.505039	1.03253	10.1476	-1
113.95	169.386	Inf	0.00113888	24.4912	24.4644	24.5181	32.7914	0.504341	1.05699	10.1475	-1
116.1	168.585	Inf	0.00116036	24.4931	24.475	24.5111	32.7908	0.504561	1.04733	10.1475	-1
118.25	167.833	Inf	0.00118189	24.5129	24.502	24.5238	32.7925	0.506497	1.03289	10.1471	-1
120.4	167.079	Inf	0.00120339	24.488	24.4731	24.5029	32.7921	0.504496	0.958412	10.1479	-1
122.55	165.951	Inf	0.00122487	24.4918	24.463	24.5207	32.7923	0.504837	1.03573	10.1477	-1
124.7	164.908	Inf	0.00124635	24.5083	24.4668	24.5498	32.791	0.505299	1.09856	10.1473	-1
126.85	163.969	Inf	0.00126785	24.4996	24.4726	24.5266	32.7933	0.506225	1.07799	10.1472	-1
129	163.062	Inf	0.00128934	24.4889	24.4615	24.5163	32.7923	0.505499	1.07825	10.1474	-1
131.15	162.086	Inf	0.00131085	24.5048	24.4918	24.5179	32.7927	0.504898	1.00053	10.1471	-1
133.3	161.212	Inf	0.00133234	24.4994	24.4835	24.5154	32.7929	0.504978	1.05247	10.1473	-1
135.45	160.321	Inf	0.00135382	24.484	24.4612	24.5067	32.7916	0.504478	0.926348	10.1471	-1
137.6	159.564	Inf	0.00137532	24.499	24.4766	24.5213	32.7932	0.505218	0.932453	10.1475	-1
139.75	158.736	Inf	0.00139681	24.4874	24.4668	24.508	32.7939	0.504655	0.992186	10.1473	-1
141.9	158.123	Inf	0.00141831	24.4796	24.4686	24.4906	32.7936	0.504559	1.02087	10.1473	-1
144.05	157.67	Inf	0.00143983	24.5091	24.4875	24.5308	32.7923	0.505919	0.915313	10.1473	-1
146.2	156.928	Inf	0.00146132	24.4788	24.4499	24.5078	32.7928	0.504479	1.04559	10.1472	-1
148.35	156.393	Inf	0.00148278	24.4881	24.4624	24.5138	32.7937	0.504375	1.11222	10.1478	-1
150.5	155.943	Inf	0.0015043	24.4945	24.4835	24.5054	32.7929	0.504862	1.15758	10.1472	-1
152.65	155.519	Inf	0.00152579	24.4924	24.4694	24.5154	32.794	0.504818	1.07538	10.1474	-1
154.8	155.032	Inf	0.00154728	24.5077	24.4807	24.5346	32.7921	0.504848	0.996098	10.1471	-1
156.95	154.576	Inf	0.00156878	24.497	24.4788	24.5152	32.7944	0.504997	1.00677	10.1473	-1
159.1	154.224	Inf	0.00159027	24.4895	24.4719	24.5071	32.7956	0.505059	0.904362	10.1476	-1
161.25	153.808	Inf	0.00161172	24.478	24.4613	24.4947	32.7925	0.504633	0.847451	10.1474	-1
163.4	153.482	Inf	0.00163322	24.5063	24.4765	24.5361	32.7953	0.506249	0.860932	10.1477	-1
165.55	153.296	Inf	0.00165472	24.4997	24.4937	24.5057	32.7957	0.505044	0.86707	10.1476	-1
167.7	152.954	Inf	0.00167625	24.505	24.4861	24.5238	32.7945	0.50547	0.863597	10.1474	-1
169.85	152.7	Inf	0.00169771	24.5052	24.4807	24.5297	32.7938	0.50476	0.944063	10.1479	-1
172	152.652	Inf	0.00171922	24.4918	24.4813	24.5022	32.7948	0.505843	1.08549	10.1476	-1
174.15	152.54	Inf	0.00174067	24.4972	24.4823	24.5121	32.7951	0.50526	1.34724	10.1471	-1
176.3	152.418	Inf	0.00176217	24.5016	24.4889	24.5142	32.7947	0.505008	1.73544	10.1475	-1
178.45	152.468	Inf	0.00178367	24.4921	24.4771	24.5072	32.7945	0.505518	1.62593	10.1473	-1
180.6	152.336	Inf	0.00180514	24.5037	24.4916	24.5158	32.7955	0.505485	1.64815	10.1474	-1
182.75	152.38	Inf	0.00182665	24.4819	24.472	24.4919	32.7948	0.505406	1.69713	10.1475	-1
184.9	152.411	Inf	0.00184818	24.4882	24.4669	24.5095	32.7935	0.505988	1.80087	10.1475	-1
187.05	152.409	Inf	0.00186967	24.4914	24.4845	24.4983	32.7947	0.505881	1.80025	10.1472	-1
189.2	152.276	Inf	0.0018912	24.496	24.4813	24.5106	32.794	0.504472	1.92945	10.1473	-1
191.35	152.315	Inf	0.00191265	24.486	24.464	24.5079	32.7957	0.505193	1.93418	10.1477	-1
193.5	152.1	Inf	0.00193419	24.4901	24.4725	24.5077	32.7964	0.505718	1.84907	10.147	-1
195.65	152.085	Inf	0.00195569	24.4991	24.4786	24.5195	32.7952	0.505806	1.76837	10.1471	-1
197.8	152.267	Inf	0.00197719	24.4969	24.4728	24.5211	32.7955	0.506104	1.91629	10.1474	-1
199.95	152.328	Inf	0.00199867	24.4898	24.4803	24.4993	32.7957	0.50562	2.04967	10.147	-1
202.1	152.403	Inf	0.00202017	24.4832	24.4633	24.5032	32.796	0.506859	1.94796	10.147	-1
204.25	152.611	Inf	0.00204165	24.4911	24.4905	24.4918	32.795	0.505532	1.83568	10.1468	-1
206.4	152.807	Inf	0.00206323	24.5035	24.485	24.5221	32.7945	0.505527	1.76945	10.1472	-1
208.55	152.999	Inf	0.00208471	24.4849	24.459	24.5108	32.7955	0.505508	1.75811	10.1475	-1
210.7	153.214	Inf	0.00210618	24.4838	24.4459	24.5217	32.7963	0.505965	1.71908	10.1474	-1
212.85	153.451	Inf	0.00212764	24.5047	24.4826	24.5267	32.7951	0.505606	1.78986	10.1474	-1
215	153.744	Inf	0.00214918	24.4735	24.4567	24.4904	32.7951	0.506259	1.85343	10.1474	-1
217.15	154.037	Inf	0.00217067	24.5005	24.4777	24.5234	32.7964	0.506151	1.89585	10.1471	-1
219.3	154.331	Inf	0.00219217	24.4907	24.4739	24.5074	32.7973	0.506335	1.74773	10.1473	-1
221.45	154.487	Inf	0.00221367	24.4768	24.4557	24.4978	32.797	0.506786	1.75687	10.1469	-1
223.6	154.698	Inf	0.00223515	24.5012	24.4746	24.5278	32.7961	0.506175	1.71824	10.1473	-1
225.75	154.906	Inf	0.00225665	24.4873	24.4643	24.5103	32.7947	0.506723	1.72784	10.1474	-1
227.9	155.092	Inf	0.00227813	24.4788	24.4515	24.5061	32.7985	0.505654	1.7243	10.1471	-1
230.05	155.278	Inf	0.00229962	24.4991	24.4872	24.5111	32.7968	0.505544	1.67034	10.1464	-1
232.2	-1.75584	-1.74031	0.00232072	24.5012	24.4805	24.522	32.7965	0.506375	-0.197705	10.1455	-1
234.35	-1.91025	-1.89702	0.00234265	24.4919	24.4725	24.5114	32.7975	0.506234	0.56751	10.1451	-1
235.2	-1.94785	-1.90619	0.00235112	24.5071	24.4897	24.5245	32.7971	0.507138	0.544001	10.1452	-1

File: Tensile_Test_02.txt
Program Started: Tue, Jul 16, 2024	1:13:32 PM	System: µTS4
Test Notes:

User displacement limits active. Low limit -20.000E-3 m, high limit 20.000E-3 m.
User load limits active. Low limit -1.600E+3 N, high limit 1.600E+3 N.

No closed loop control sensors in this test.

Test Segments:
 1. Ramp in Drive Control, +5.00E-3m Amplitude, 10.00E-6 m/s Speed. Sampling at 20.000 Hz, Lowpass Filter Cutoff of 100.000 Hz

Specimen Thickness (m): 	1.550E-3
Specimen Width (m): 	1.910E-3
Specimen Diameter (m): 	0.000E+0
Specimen Area (m^2): 	2.960E-6
Specimen Length (m): 	5.000E-3

Test Started: Tue, Jul 16, 2024	1:43:28 PM
Time (s)	LCFS1600 (N)	LCW1600 (N)	ECATENC (m)	SpecTemp (C)	AirTemp (C)	OutletTemp (C)	JTemp1600 (C)	GTemp1600 (C)	CUR (A)	Ve (V)	Trigger (#)
0.0000000000E+0	-0.291592	-0.329273	6.43149e-16	24.5218	24.5063	24.5373	32.8019	0.508303	0.0628645	10.1453	-1
2.1	3.61308	3.66326	1.93678e-05	24.5068	24.4829	24.5306	32.8014	0.507915	0.104463	10.1455	-1
4.2	6.71771	6.73525	4.03559e-05	24.5044	24.508	24.5008	32.8006	0.506521	0.190213	10.1462	-1
6.3	10.1567	10.1862	6.13671e-05	24.505	24.4966	24.5134	32.8013	0.505739	0.234301	10.146	-1
8.4	14.0993	13.9571	8.23718e-05	24.5031	24.4842	24.522	32.8019	0.506537	0.221355	10.1466	-1
10.5	17.9561	18.0508	0.000103326	24.5113	24.4935	24.529	32.8018	0.506125	0.226353	10.1466	-1
12.6	22.5299	22.5242	0.000124282	24.5073	24.5022	24.5124	32.8013	0.50633	0.266866	10.1469	-1
14.7	27.0797	Inf	0.000145282	24.5003	24.4782	24.5225	32.8014	0.505395	0.278603	10.1471	-1
16.8	31.6479	Inf	0.000166283	24.5001	24.4881	24.5122	32.8003	0.505461	0.22838	10.1472	-1
18.9	35.7861	Inf	0.000187301	24.5021	24.4893	24.5149	32.8016	0.505514	0.275644	10.1473	-1
21	39.424	Inf	0.000208282	24.5045	24.4957	24.5132	32.8009	0.505571	0.305561	10.1473	-1
23.1	42.821	Inf	0.000229276	24.4954	24.4789	24.5118	32.8004	0.505974	0.348277	10.1472	-1
25.2	46.3893	Inf	0.000250268	24.4833	24.465	24.5016	32.8005	0.506332	0.315964	10.1471	-1
27.3	50.2071	Inf	0.000271246	24.5042	24.4832	24.5252	32.8016	0.505223	0.348974	10.1471	-1
29.4	54.0118	Inf	0.000292254	24.5031	24.4993	24.5068	32.8014	0.506026	0.372203	10.1471	-1
31.5	57.7013	Inf	0.000313239	24.5183	24.5075	24.5291	32.801	0.505591	0.347495	10.1471	-1
33.6	61.8756	Inf	0.000334262	24.5073	24.4926	24.522	32.8022	0.506268	0.329005	10.147	-1
35.7	65.7664	Inf	0.000355261	24.5076	24.4823	24.5328	32.8018	0.504828	0.291566	10.1475	-1
37.8	70.0875	Inf	0.000376264	24.5148	24.5111	24.5185	32.8007	0.505737	0.361194	10.1472	-1
39.9	74.065	Inf	0.000397299	24.5026	24.493	24.5122	32.7999	0.505991	0.401288	10.1471	-1
42	78.2739	Inf	0.000418306	24.509	24.5022	24.5158	32.8016	0.505201	0.444688	10.1469	-1
44.1	82.8288	Inf	0.000439287	24.5108	24.4926	24.529	32.8008	0.506053	0.471287	10.1471	-1
46.2	87.2132	Inf	0.000460266	24.5121	24.501	24.5232	32.8022	0.505426	0.602771	10.147	-1
48.3	91.3871	Inf	0.000481253	24.5114	24.4904	24.5325	32.8014	0.504982	0.585611	10.1472	-1
50.4	95.7322	Inf	0.000502278	24.5146	24.4867	24.5425	32.8012	0.505595	0.520718	10.1471	-1
52.5	100.548	Inf	0.000523283	24.5013	24.4798	24.5227	32.8021	0.504968	0.546841	10.1475	-1
54.6	105.553	Inf	0.000544285	24.4956	24.482	24.5092	32.8015	0.505151	0.618692	10.1473	-1
56.7	110.391	Inf	0.000565297	24.5057	24.494	24.5175	32.8011	0.505878	0.66916	10.1471	-1
58.8	115.009	Inf	0.000586263	24.4919	24.4704	24.5134	32.8001	0.504644	0.630935	10.1477	-1
60.9	119.793	Inf	0.000607253	24.5047	24.484	24.5255	32.8024	0.504886	0.731753	10.1474	-1
63	124.112	Inf	0.000628259	24.5057	24.5019	24.5095	32.8028	0.504964	0.786381	10.1468	-1
65.1	128.245	Inf	0.000649238	24.5023	24.4925	24.5121	32.8006	0.506749	0.803128	10.147	-1
67.2	132.298	Inf	0.000670238	24.5075	24.5023	24.5128	32.8033	0.505293	0.767287	10.1474	-1
69.3	136.084	Inf	0.000691215	24.5143	24.5051	24.5236	32.803	0.505886	0.701045	10.1474	-1
71.4	139.931	Inf	0.000712248	24.499	24.4845	24.5136	32.8018	0.504777	0.803065	10.1474	-1
73.5	143.276	Inf	0.000733251	24.4888	24.4735	24.504	32.8023	0.504194	0.822762	10.1475	-1
75.6	146.615	Inf	0.000754208	24.5046	24.4898	24.5194	32.8026	0.505069	0.878369	10.1476	-1
77.7	149.862	Inf	0.000775238	24.4878	24.4665	24.509	32.8032	0.506432	0.953194	10.1469	-1
79.8	152.575	Inf	0.000796225	24.5112	24.4927	24.5297	32.803	0.505811	1.08781	10.1471	-1
81.9	155.161	Inf	0.000817186	24.5048	24.4767	24.5328	32.8048	0.505364	1.04616	10.1475	-1
84	157.552	Inf	0.000838206	24.5003	24.4844	24.5162	32.8023	0.506077	0.988485	10.1469	-1
86.1	159.487	Inf	0.000859195	24.5026	24.4959	24.5093	32.803	0.505513	1.05426	10.1471	-1
88.2	161.337	Inf	0.000880174	24.4906	24.4793	24.502	32.8024	0.504766	1.00818	10.1471	-1
90.3	162.657	Inf	0.000901191	24.5004	24.4835	24.5173	32.8037	0.506038	1.06871	10.1467	-1
92.4	163.784	Inf	0.000922211	24.5068	24.4807	24.5328	32.802	0.505778	0.968772	10.1472	-1
94.5	164.454	Inf	0.000943194	24.4834	24.4593	24.5075	32.8039	0.506243	1.03007	10.1472	-1
96.6	164.949	Inf	0.000964177	24.4984	24.4994	24.4974	32.8031	0.505404	1.04549	10.1469	-1
98.7	165.248	Inf	0.0009852	24.5128	24.5023	24.5234	32.8058	0.505951	0.992483	10.147	-1
100.8	165.084	Inf	0.00100616	24.5137	24.5049	24.5225	32.8025	0.506188	0.960761	10.1474	-1
102.9	164.802	Inf	0.00102716	24.516	24.4976	24.5345	32.804	0.505627	0.919627	10.148	-1
105	164.355	Inf	0.00104816	24.4985	24.4718	24.5251	32.8035	0.50643	0.934209	10.1475	-1
107.1	163.847	Inf	0.00106913	24.4976	24.4723	24.523	32.8045	0.505859	0.919041	10.1474	-1
109.2	162.99	Inf	0.00109011	24.4996	24.4808	24.5184	32.8025	0.50615	0.948938	10.1471	-1
111.3	162.059	Inf	0.00111109	24.4982	24.4818	24.5146	32.804	0.506316	1.02989	10.1478	-1
113.4	161.209	Inf	0.00113207	24.5057	24.4745	24.5368	32.8036	0.506431	1.14133	10.1473	-1
115.5	160.116	Inf	0.00115307	24.5045	24.4969	24.5121	32.8033	0.50667	1.15957	10.1473	-1
117.6	159.194	Inf	0.00117408	24.4924	24.4728	24.5119	32.8034	0.505662	1.11067	10.1469	-1
119.7	158.101	Inf	0.00119506	24.5067	24.4858	24.5277	32.8024	0.506905	1.15613	10.1473	-1
121.8	157.095	Inf	0.00121605	24.4991	24.4903	24.5079	32.8017	0.506386	1.11461	10.1473	-1
123.9	156.057	Inf	0.00123705	24.5033	24.4885	24.5181	32.8037	0.506681	1.12833	10.1468	-1
126	154.984	Inf	0.00125805	24.5053	24.503	24.5077	32.8047	0.505573	1.0427	10.1472	-1
128.1	154.064	Inf	0.00127907	24.491	24.4702	24.5117	32.8033	0.506954	0.964234	10.1468	-1
130.2	153.129	Inf	0.0013001	24.5006	24.4987	24.5024	32.8051	0.506778	0.952316	10.1468	-1
132.3	152.225	Inf	0.00132111	24.5007	24.4861	24.5152	32.8034	0.505096	0.958237	10.147	-1
134.4	151.475	Inf	0.0013421	24.5149	24.5068	24.523	32.8044	0.506491	0.909802	10.1468	-1
136.5	150.629	Inf	0.00136307	24.4922	24.4734	24.511	32.8044	0.506385	0.971356	10.1469	-1
138.6	150.081	Inf	0.00138407	24.5041	24.4921	24.5161	32.8043	0.506787	1.04241	10.1469	-1
140.7	149.351	Inf	0.00140508	24.493	24.4914	24.4947	32.8043	0.505903	0.979403	10.147	-1
142.8	148.836	Inf	0.00142609	24.5006	24.4821	24.519	32.8037	0.505989	0.953735	10.1473	-1
144.9	148.474	Inf	0.00144707	24.5021	24.4893	24.515	32.8034	0.506732	1.08872	10.147	-1
147	147.96	Inf	0.00146808	24.4983	24.4813	24.5153	32.8046	0.506977	1.17811	10.1474	-1
149.1	147.632	Inf	0.00148908	24.4946	24.4888	24.5004	32.8049	0.506122	1.21434	10.1474	-1
151.2	147.334	Inf	0.00151006	24.5001	24.4982	24.502	32.8057	0.506689	1.40734	10.1472	-1
153.3	147.255	Inf	0.00153106	24.5	24.4792	24.5208	32.8048	0.506285	1.38115	10.1472	-1
155.4	146.841	Inf	0.00155203	24.4942	24.4842	24.5041	32.8043	0.506827	1.58927	10.147	-1
157.5	146.445	Inf	0.00157302	24.4914	24.4755	24.5073	32.8058	0.506279	1.81401	10.147	-1
159.6	146.289	Inf	0.00159404	24.4839	24.4874	24.4804	32.807	0.50716	1.72761	10.1468	-1
161.7	146.109	Inf	0.00161503	24.4901	24.4664	24.5138	32.8025	0.506844	1.8733	10.147	-1
163.8	145.724	Inf	0.00163605	24.5002	24.4884	24.512	32.8043	0.50676	1.81739	10.1472	-1
165.9	145.531	Inf	0.00165704	24.48	24.4566	24.5035	32.8047	0.507228	1.92969	10.1471	-1
168	145.472	Inf	0.00167803	24.4956	24.4842	24.5069	32.804	0.506226	1.82977	10.1471	-1
170.1	145.509	Inf	0.00169902	24.5042	24.4818	24.5266	32.8041	0.50698	1.99376	10.1471	-1
172.2	145.409	Inf	0.00172002	24.4984	24.4825	24.5142	32.8038	0.507538	2.01361	10.1472	-1
174.3	145.351	Inf	0.00174098	24.4885	24.4637	24.5132	32.806	0.507933	1.85177	10.147	-1
176.4	145.348	Inf	0.00176202	24.5047	24.4975	24.5118	32.8038	0.50713	1.69279	10.1473	-1
178.5	145.519	Inf	0.001783	24.4962	24.489	24.5034	32.8047	0.507228	1.72412	10.1472	-1
180.6	145.602	Inf	0.00180402	24.5083	24.4907	24.5259	32.806	0.506569	1.80223	10.1475	-1
182.7	145.752	Inf	0.00182502	24.4848	24.4823	24.4873	32.8056	0.507289	1.74691	10.1472	-1
184.8	145.989	Inf	0.001846	24.5001	24.484	24.5161	32.8063	0.506769	1.9235	10.1473	-1
186.9	146.027	Inf	0.001867	24.4959	24.469	24.5229	32.8048	0.508197	1.93249	10.1475	-1
189	146.173	Inf	0.00188796	24.493	24.4881	24.4979	32.8043	0.507853	1.89321	10.1476	-1
191.1	146.462	Inf	0.00190899	24.511	24.4987	24.5233	32.8057	0.506492	1.78996	10.1471	-1
193.2	146.426	Inf	0.00192991	24.4849	24.4667	24.5031	32.8048	0.507662	1.64216	10.1472	-1
195.3	146.542	Inf	0.00195096	24.4885	24.4933	24.4838	32.8065	0.506867	1.7466	10.1471	-1
197.4	146.678	Inf	0.00197193	24.4937	24.4797	24.5078	32.805	0.508435	1.69968	10.1472	-1
199.5	146.876	Inf	0.00199292	24.495	24.4704	24.5196	32.8033	0.507896	1.7159	10.1476	-1
201.6	146.921	Inf	0.00201391	24.5029	24.4909	24.515	32.8048	0.505982	1.67201	10.1474	-1
203.7	147.092	Inf	0.00203488	24.5068	24.4877	24.5259	32.8057	0.507222	1.71839	10.1471	-1
205.8	147.235	Inf	0.00205589	24.5119	24.505	24.5188	32.8063	0.507767	1.77905	10.1474	-1
207.9	147.451	Inf	0.00207692	24.5142	24.5006	24.5278	32.8052	0.508381	1.73078	10.1472	-1
210	147.5	Inf	0.00209788	24.5131	24.4987	24.5274	32.8057	0.507371	1.64079	10.147	-1
212.1	147.716	Inf	0.00211888	24.5001	24.4809	24.5193	32.8053	0.508143	1.61533	10.147	-1
214.2	148.005	Inf	0.00213989	24.5025	24.4843	24.5207	32.8051	0.50756	1.59565	10.1474	-1
216.3	148.261	Inf	0.00216088	24.4944	24.4834	24.5054	32.8053	0.508259	1.45925	10.1477	-1
218.4	148.404	Inf	0.00218193	24.4928	24.4853	24.5004	32.8051	0.507313	1.49986	10.1473	-1
220.5	148.634	Inf	0.00220292	24.4988	24.4888	24.5088	32.8046	0.507222	1.40785	10.1471	-1
222.6	148.734	Inf	0.00222389	24.4977	24.4842	24.5111	32.8056	0.508326	1.41702	10.147	-1
224.7	149.059	Inf	0.0022449	24.4899	24.4829	24.4968	32.8052	0.508148	1.28546	10.1475	-1
226.8	149.214	Inf	0.00226589	24.4827	24.4767	24.4888	32.8065	0.508105	1.21207	10.1474	-1
228.9	149.153	Inf	0.00228689	24.4825	24.473	24.492	32.8057	0.507647	1.18725	10.1473	-1
231	-4.82743	-4.4141	0.00230789	24.4917	24.4768	24.5065	32.8064	0.509011	0.569468	10.1458	-1
232.35	-4.76599	-4.41359	0.00232138	24.4966	24.4957	24.4974	32.8066	0.508429	0.667836	10.1457	-1